"type","condition1","condition2","trialNo","target","stim1","stim2","stim3","stim4","stim5","stim6","key","ITI","presTime","ISI","presTimeS2","stimFormat","title","content","trialText","button1","feedbackIncorrect","feedbackTime","random","randomBlock","subjectGroup","timestamp","responses","RTs","correct","turkID","age","sex","education","handedness","sexOrientation","ethnicity","other1","other2","other3","other4","other5","browser","version","screenWidth","screenHeight","OS","OS_lang","calibration","ip","code"
"test","immoral","scenario1",14,"How morally wrong would it be for Heinz to. . . blackmail someone for the money?","Totally morally fine","Somewhat morally fine","In between","Somewhat morally wrong","Totally morally wrong","Not applicable","na",600,"na","na","na","survey","na","na","na","na","na","na",1,1,2,119818,5,7093,0,1,34,"female",4,"right-handed",NA,NA,NA,NA,NA,NA,NA,"Firefox",46,1280,800,"Windows","en-US",0.89,NA,"9iihwXGlzAVzPInX"
"test","impossible","scenario1",12,"How morally wrong would it be for Heinz to. . . get the money by clapping?","Totally morally fine","Somewhat morally fine","In between","Somewhat morally wrong","Totally morally wrong","Not applicable","na",600,"na","na","na","survey","na","na","na","na","na","na",1,1,2,125520,1,5700,0,1,34,"female",4,"right-handed",NA,NA,NA,NA,NA,NA,NA,"Firefox",46,1280,800,"Windows","en-US",0.89,NA,"9iihwXGlzAVzPInX"
"test","immoral","scenario1",15,"How morally wrong would it be for Heinz to. . . commit credit card fraud?","Totally morally fine","Somewhat morally fine","In between","Somewhat morally wrong","Totally morally wrong","Not applicable","na",600,"na","na","na","survey","na","na","na","na","na","na",1,1,2,127994,5,2473,0,1,34,"female",4,"right-handed",NA,NA,NA,NA,NA,NA,NA,"Firefox",46,1280,800,"Windows","en-US",0.89,NA,"9iihwXGlzAVzPInX"
"test","possible","scenario1",5,"How morally wrong would it be for Heinz to. . . borrow the money from a bank?","Totally morally fine","Somewhat morally fine","In between","Somewhat morally wrong","Totally morally wrong","Not applicable","na",600,"na","na","na","survey","na","na","na","na","na","na",1,1,2,130567,1,2571,0,1,34,"female",4,"right-handed",NA,NA,NA,NA,NA,NA,NA,"Firefox",46,1280,800,"Windows","en-US",0.89,NA,"9iihwXGlzAVzPInX"
"test","possible","scenario1",2,"How morally wrong would it be for Heinz to. . . use a generic medication instead?","Totally morally fine","Somewhat morally fine","In between","Somewhat morally wrong","Totally morally wrong","Not applicable","na",600,"na","na","na","survey","na","na","na","na","na","na",1,1,2,132979,1,2410,0,1,34,"female",4,"right-handed",NA,NA,NA,NA,NA,NA,NA,"Firefox",46,1280,800,"Windows","en-US",0.89,NA,"9iihwXGlzAVzPInX"
"test","irrational","scenario1",23,"How morally wrong would it be for Heinz to. . . go on strike until wages increase?","Totally morally fine","Somewhat morally fine","In between","Somewhat morally wrong","Totally morally wrong","Not applicable","na",600,"na","na","na","survey","na","na","na","na","na","na",1,1,2,138711,3,5730,0,1,34,"female",4,"right-handed",NA,NA,NA,NA,NA,NA,NA,"Firefox",46,1280,800,"Windows","en-US",0.89,NA,"9iihwXGlzAVzPInX"
"test","impossible","scenario1",10,"How morally wrong would it be for Heinz to. . . make the money time traveling?","Totally morally fine","Somewhat morally fine","In between","Somewhat morally wrong","Totally morally wrong","Not applicable","na",600,"na","na","na","survey","na","na","na","na","na","na",1,1,2,143153,1,4440,0,1,34,"female",4,"right-handed",NA,NA,NA,NA,NA,NA,NA,"Firefox",46,1280,800,"Windows","en-US",0.89,NA,"9iihwXGlzAVzPInX"
"test","improbable","scenario1",20,"How morally wrong would it be for Heinz to. . . discover a cheap new medicine?","Totally morally fine","Somewhat morally fine","In between","Somewhat morally wrong","Totally morally wrong","Not applicable","na",600,"na","na","na","survey","na","na","na","na","na","na",1,1,2,144998,1,1843,0,1,34,"female",4,"right-handed",NA,NA,NA,NA,NA,NA,NA,"Firefox",46,1280,800,"Windows","en-US",0.89,NA,"9iihwXGlzAVzPInX"
"test","irrational","scenario1",21,"How morally wrong would it be for Heinz to. . . sell his own medication?","Totally morally fine","Somewhat morally fine","In between","Somewhat morally wrong","Totally morally wrong","Not applicable","na",600,"na","na","na","survey","na","na","na","na","na","na",1,1,2,147135,1,2134,0,1,34,"female",4,"right-handed",NA,NA,NA,NA,NA,NA,NA,"Firefox",46,1280,800,"Windows","en-US",0.89,NA,"9iihwXGlzAVzPInX"
"test","possible","scenario1",4,"How morally wrong would it be for Heinz to. . . enroll in federal healthcare?","Totally morally fine","Somewhat morally fine","In between","Somewhat morally wrong","Totally morally wrong","Not applicable","na",600,"na","na","na","survey","na","na","na","na","na","na",1,1,2,149297,1,2158,0,1,34,"female",4,"right-handed",NA,NA,NA,NA,NA,NA,NA,"Firefox",46,1280,800,"Windows","en-US",0.89,NA,"9iihwXGlzAVzPInX"
"test","possible","scenario1",8,"How morally wrong would it be for Heinz to. . . sell an extra car for the money?","Totally morally fine","Somewhat morally fine","In between","Somewhat morally wrong","Totally morally wrong","Not applicable","na",600,"na","na","na","survey","na","na","na","na","na","na",1,1,2,151290,1,1991,0,1,34,"female",4,"right-handed",NA,NA,NA,NA,NA,NA,NA,"Firefox",46,1280,800,"Windows","en-US",0.89,NA,"9iihwXGlzAVzPInX"
"test","impossible","scenario1",9,"How morally wrong would it be for Heinz to. . . be given the money by a turtle?","Totally morally fine","Somewhat morally fine","In between","Somewhat morally wrong","Totally morally wrong","Not applicable","na",600,"na","na","na","survey","na","na","na","na","na","na",1,1,2,153577,1,2286,0,1,34,"female",4,"right-handed",NA,NA,NA,NA,NA,NA,NA,"Firefox",46,1280,800,"Windows","en-US",0.89,NA,"9iihwXGlzAVzPInX"
"test","improbable","scenario1",19,"How morally wrong would it be for Heinz to. . . receive the money from a stranger?","Totally morally fine","Somewhat morally fine","In between","Somewhat morally wrong","Totally morally wrong","Not applicable","na",600,"na","na","na","survey","na","na","na","na","na","na",1,1,2,155708,1,2129,0,1,34,"female",4,"right-handed",NA,NA,NA,NA,NA,NA,NA,"Firefox",46,1280,800,"Windows","en-US",0.89,NA,"9iihwXGlzAVzPInX"
"test","possible","scenario1",3,"How morally wrong would it be for Heinz to. . . buy a different insurance plan?","Totally morally fine","Somewhat morally fine","In between","Somewhat morally wrong","Totally morally wrong","Not applicable","na",600,"na","na","na","survey","na","na","na","na","na","na",1,1,2,157521,1,1812,0,1,34,"female",4,"right-handed",NA,NA,NA,NA,NA,NA,NA,"Firefox",46,1280,800,"Windows","en-US",0.89,NA,"9iihwXGlzAVzPInX"
"test","improbable","scenario1",17,"How morally wrong would it be for Heinz to. . . be  given the medicine by  a doctor?","Totally morally fine","Somewhat morally fine","In between","Somewhat morally wrong","Totally morally wrong","Not applicable","na",600,"na","na","na","survey","na","na","na","na","na","na",1,1,2,160383,1,2860,0,1,34,"female",4,"right-handed",NA,NA,NA,NA,NA,NA,NA,"Firefox",46,1280,800,"Windows","en-US",0.89,NA,"9iihwXGlzAVzPInX"
"test","improbable","scenario1",18,"How morally wrong would it be for Heinz to. . . inherit money from a close relative?","Totally morally fine","Somewhat morally fine","In between","Somewhat morally wrong","Totally morally wrong","Not applicable","na",600,"na","na","na","survey","na","na","na","na","na","na",1,1,2,162273,1,1889,0,1,34,"female",4,"right-handed",NA,NA,NA,NA,NA,NA,NA,"Firefox",46,1280,800,"Windows","en-US",0.89,NA,"9iihwXGlzAVzPInX"
"test","possible","scenario1",6,"How morally wrong would it be for Heinz to. . . be given the money by a friend?","Totally morally fine","Somewhat morally fine","In between","Somewhat morally wrong","Totally morally wrong","Not applicable","na",600,"na","na","na","survey","na","na","na","na","na","na",1,1,2,163961,1,1687,0,1,34,"female",4,"right-handed",NA,NA,NA,NA,NA,NA,NA,"Firefox",46,1280,800,"Windows","en-US",0.89,NA,"9iihwXGlzAVzPInX"
"test","irrational","scenario1",22,"How morally wrong would it be for Heinz to. . . sell all his clothes for money?","Totally morally fine","Somewhat morally fine","In between","Somewhat morally wrong","Totally morally wrong","Not applicable","na",600,"na","na","na","survey","na","na","na","na","na","na",1,1,2,165596,1,1634,0,1,34,"female",4,"right-handed",NA,NA,NA,NA,NA,NA,NA,"Firefox",46,1280,800,"Windows","en-US",0.89,NA,"9iihwXGlzAVzPInX"
"test","possible","scenario1",1,"How morally wrong would it be for Heinz to. . . sell some of his stocks or bonds?","Totally morally fine","Somewhat morally fine","In between","Somewhat morally wrong","Totally morally wrong","Not applicable","na",600,"na","na","na","survey","na","na","na","na","na","na",1,1,2,167259,1,1662,0,1,34,"female",4,"right-handed",NA,NA,NA,NA,NA,NA,NA,"Firefox",46,1280,800,"Windows","en-US",0.89,NA,"9iihwXGlzAVzPInX"
"test","possible","scenario1",7,"How morally wrong would it be for Heinz to. . . loan the money from his family?","Totally morally fine","Somewhat morally fine","In between","Somewhat morally wrong","Totally morally wrong","Not applicable","na",600,"na","na","na","survey","na","na","na","na","na","na",1,1,2,169345,1,2085,0,1,34,"female",4,"right-handed",NA,NA,NA,NA,NA,NA,NA,"Firefox",46,1280,800,"Windows","en-US",0.89,NA,"9iihwXGlzAVzPInX"
"test","immoral","scenario1",16,"How morally wrong would it be for Heinz to. . . get the medicine by stealing?","Totally morally fine","Somewhat morally fine","In between","Somewhat morally wrong","Totally morally wrong","Not applicable","na",600,"na","na","na","survey","na","na","na","na","na","na",1,1,2,173257,5,3911,0,1,34,"female",4,"right-handed",NA,NA,NA,NA,NA,NA,NA,"Firefox",46,1280,800,"Windows","en-US",0.89,NA,"9iihwXGlzAVzPInX"
"test","irrational","scenario1",24,"How morally wrong would it be for Heinz to. . . try random other medicines?","Totally morally fine","Somewhat morally fine","In between","Somewhat morally wrong","Totally morally wrong","Not applicable","na",600,"na","na","na","survey","na","na","na","na","na","na",1,1,2,175397,1,2139,0,1,34,"female",4,"right-handed",NA,NA,NA,NA,NA,NA,NA,"Firefox",46,1280,800,"Windows","en-US",0.89,NA,"9iihwXGlzAVzPInX"
"test","impossible","scenario1",11,"How morally wrong would it be for Heinz to. . . grow the money on a tree?","Totally morally fine","Somewhat morally fine","In between","Somewhat morally wrong","Totally morally wrong","Not applicable","na",600,"na","na","na","survey","na","na","na","na","na","na",1,1,2,177489,1,2091,0,1,34,"female",4,"right-handed",NA,NA,NA,NA,NA,NA,NA,"Firefox",46,1280,800,"Windows","en-US",0.89,NA,"9iihwXGlzAVzPInX"
"test","immoral","scenario1",13,"How morally wrong would it be for Heinz to. . . steal the money from his work?","Totally morally fine","Somewhat morally fine","In between","Somewhat morally wrong","Totally morally wrong","Not applicable","na",600,"na","na","na","survey","na","na","na","na","na","na",1,1,2,180429,5,2939,0,1,34,"female",4,"right-handed",NA,NA,NA,NA,NA,NA,NA,"Firefox",46,1280,800,"Windows","en-US",0.89,NA,"9iihwXGlzAVzPInX"
"test","impossible","scenario2",33,"How morally wrong would it be for Josh to. . . get a new car by thinking?","Totally morally fine","Somewhat morally fine","In between","Somewhat morally wrong","Totally morally wrong","Not applicable","na",600,"na","na","na","survey","na","na","na","na","na","na",1,2,2,203383,6,5041,0,1,34,"female",4,"right-handed",NA,NA,NA,NA,NA,NA,NA,"Firefox",46,1280,800,"Windows","en-US",0.89,NA,"9iihwXGlzAVzPInX"
"test","improbable","scenario2",43,"How morally wrong would it be for Josh to. . . get a stranger to drive him?","Totally morally fine","Somewhat morally fine","In between","Somewhat morally wrong","Totally morally wrong","Not applicable","na",600,"na","na","na","survey","na","na","na","na","na","na",1,2,2,205919,1,2534,0,1,34,"female",4,"right-handed",NA,NA,NA,NA,NA,NA,NA,"Firefox",46,1280,800,"Windows","en-US",0.89,NA,"9iihwXGlzAVzPInX"
"test","immoral","scenario2",40,"How morally wrong would it be for Josh to. . . sneak onto public transportation?","Totally morally fine","Somewhat morally fine","In between","Somewhat morally wrong","Totally morally wrong","Not applicable","na",600,"na","na","na","survey","na","na","na","na","na","na",1,2,2,209201,4,3281,0,1,34,"female",4,"right-handed",NA,NA,NA,NA,NA,NA,NA,"Firefox",46,1280,800,"Windows","en-US",0.89,NA,"9iihwXGlzAVzPInX"
"test","irrational","scenario2",46,"How morally wrong would it be for Josh to. . . sell car for ride to airport?","Totally morally fine","Somewhat morally fine","In between","Somewhat morally wrong","Totally morally wrong","Not applicable","na",600,"na","na","na","survey","na","na","na","na","na","na",1,2,2,212071,1,2869,0,1,34,"female",4,"right-handed",NA,NA,NA,NA,NA,NA,NA,"Firefox",46,1280,800,"Windows","en-US",0.89,NA,"9iihwXGlzAVzPInX"
"test","possible","scenario2",28,"How morally wrong would it be for Josh to. . . request aiport shuttle pickup?","Totally morally fine","Somewhat morally fine","In between","Somewhat morally wrong","Totally morally wrong","Not applicable","na",600,"na","na","na","survey","na","na","na","na","na","na",1,2,2,213759,1,1687,0,1,34,"female",4,"right-handed",NA,NA,NA,NA,NA,NA,NA,"Firefox",46,1280,800,"Windows","en-US",0.89,NA,"9iihwXGlzAVzPInX"
"test","possible","scenario2",31,"How morally wrong would it be for Josh to. . . call a friend for a ride?","Totally morally fine","Somewhat morally fine","In between","Somewhat morally wrong","Totally morally wrong","Not applicable","na",600,"na","na","na","survey","na","na","na","na","na","na",1,2,2,215541,1,1781,0,1,34,"female",4,"right-handed",NA,NA,NA,NA,NA,NA,NA,"Firefox",46,1280,800,"Windows","en-US",0.89,NA,"9iihwXGlzAVzPInX"
"test","irrational","scenario2",48,"How morally wrong would it be for Josh to. . . try to run there in time?","Totally morally fine","Somewhat morally fine","In between","Somewhat morally wrong","Totally morally wrong","Not applicable","na",600,"na","na","na","survey","na","na","na","na","na","na",1,2,2,217277,1,1735,0,1,34,"female",4,"right-handed",NA,NA,NA,NA,NA,NA,NA,"Firefox",46,1280,800,"Windows","en-US",0.89,NA,"9iihwXGlzAVzPInX"
"test","improbable","scenario2",41,"How morally wrong would it be for Josh to. . . beckon a friend passing by?","Totally morally fine","Somewhat morally fine","In between","Somewhat morally wrong","Totally morally wrong","Not applicable","na",600,"na","na","na","survey","na","na","na","na","na","na",1,2,2,219138,1,1860,0,1,34,"female",4,"right-handed",NA,NA,NA,NA,NA,NA,NA,"Firefox",46,1280,800,"Windows","en-US",0.89,NA,"9iihwXGlzAVzPInX"
"test","impossible","scenario2",34,"How morally wrong would it be for Josh to. . . ride a cat to the airport?","Totally morally fine","Somewhat morally fine","In between","Somewhat morally wrong","Totally morally wrong","Not applicable","na",600,"na","na","na","survey","na","na","na","na","na","na",1,2,2,222217,6,3078,0,1,34,"female",4,"right-handed",NA,NA,NA,NA,NA,NA,NA,"Firefox",46,1280,800,"Windows","en-US",0.89,NA,"9iihwXGlzAVzPInX"
"test","possible","scenario2",26,"How morally wrong would it be for Josh to. . . ask the gas station clerk for help?","Totally morally fine","Somewhat morally fine","In between","Somewhat morally wrong","Totally morally wrong","Not applicable","na",600,"na","na","na","survey","na","na","na","na","na","na",1,2,2,225305,1,3087,0,1,34,"female",4,"right-handed",NA,NA,NA,NA,NA,NA,NA,"Firefox",46,1280,800,"Windows","en-US",0.89,NA,"9iihwXGlzAVzPInX"
"test","possible","scenario2",27,"How morally wrong would it be for Josh to. . . take the public bus there?","Totally morally fine","Somewhat morally fine","In between","Somewhat morally wrong","Totally morally wrong","Not applicable","na",600,"na","na","na","survey","na","na","na","na","na","na",1,2,2,226923,1,1617,0,1,34,"female",4,"right-handed",NA,NA,NA,NA,NA,NA,NA,"Firefox",46,1280,800,"Windows","en-US",0.89,NA,"9iihwXGlzAVzPInX"
"test","impossible","scenario2",35,"How morally wrong would it be for Josh to. . . teleport himself to the airport?","Totally morally fine","Somewhat morally fine","In between","Somewhat morally wrong","Totally morally wrong","Not applicable","na",600,"na","na","na","survey","na","na","na","na","na","na",1,2,2,229483,6,2559,0,1,34,"female",4,"right-handed",NA,NA,NA,NA,NA,NA,NA,"Firefox",46,1280,800,"Windows","en-US",0.89,NA,"9iihwXGlzAVzPInX"
"test","immoral","scenario2",39,"How morally wrong would it be for Josh to. . . take another driver hostage?","Totally morally fine","Somewhat morally fine","In between","Somewhat morally wrong","Totally morally wrong","Not applicable","na",600,"na","na","na","survey","na","na","na","na","na","na",1,2,2,232291,5,2806,0,1,34,"female",4,"right-handed",NA,NA,NA,NA,NA,NA,NA,"Firefox",46,1280,800,"Windows","en-US",0.89,NA,"9iihwXGlzAVzPInX"
"test","possible","scenario2",25,"How morally wrong would it be for Josh to. . . reschedule for a later flight?","Totally morally fine","Somewhat morally fine","In between","Somewhat morally wrong","Totally morally wrong","Not applicable","na",600,"na","na","na","survey","na","na","na","na","na","na",1,2,2,234983,1,2691,0,1,34,"female",4,"right-handed",NA,NA,NA,NA,NA,NA,NA,"Firefox",46,1280,800,"Windows","en-US",0.89,NA,"9iihwXGlzAVzPInX"
"test","possible","scenario2",29,"How morally wrong would it be for Josh to. . . ask a relative to pick him up?","Totally morally fine","Somewhat morally fine","In between","Somewhat morally wrong","Totally morally wrong","Not applicable","na",600,"na","na","na","survey","na","na","na","na","na","na",1,2,2,236735,1,1751,0,1,34,"female",4,"right-handed",NA,NA,NA,NA,NA,NA,NA,"Firefox",46,1280,800,"Windows","en-US",0.89,NA,"9iihwXGlzAVzPInX"
"test","possible","scenario2",32,"How morally wrong would it be for Josh to. . . take public transportation?","Totally morally fine","Somewhat morally fine","In between","Somewhat morally wrong","Totally morally wrong","Not applicable","na",600,"na","na","na","survey","na","na","na","na","na","na",1,2,2,238151,1,1415,0,1,34,"female",4,"right-handed",NA,NA,NA,NA,NA,NA,NA,"Firefox",46,1280,800,"Windows","en-US",0.89,NA,"9iihwXGlzAVzPInX"
"test","possible","scenario2",30,"How morally wrong would it be for Josh to. . . hail a taxi at the intersection?","Totally morally fine","Somewhat morally fine","In between","Somewhat morally wrong","Totally morally wrong","Not applicable","na",600,"na","na","na","survey","na","na","na","na","na","na",1,2,2,240079,1,1927,0,1,34,"female",4,"right-handed",NA,NA,NA,NA,NA,NA,NA,"Firefox",46,1280,800,"Windows","en-US",0.89,NA,"9iihwXGlzAVzPInX"
"test","immoral","scenario2",38,"How morally wrong would it be for Josh to. . . take a taxi without paying?","Totally morally fine","Somewhat morally fine","In between","Somewhat morally wrong","Totally morally wrong","Not applicable","na",600,"na","na","na","survey","na","na","na","na","na","na",1,2,2,243059,5,2979,0,1,34,"female",4,"right-handed",NA,NA,NA,NA,NA,NA,NA,"Firefox",46,1280,800,"Windows","en-US",0.89,NA,"9iihwXGlzAVzPInX"
"test","impossible","scenario2",36,"How morally wrong would it be for Josh to. . . levitate and fly to the airport?","Totally morally fine","Somewhat morally fine","In between","Somewhat morally wrong","Totally morally wrong","Not applicable","na",600,"na","na","na","survey","na","na","na","na","na","na",1,2,2,245751,6,2691,0,1,34,"female",4,"right-handed",NA,NA,NA,NA,NA,NA,NA,"Firefox",46,1280,800,"Windows","en-US",0.89,NA,"9iihwXGlzAVzPInX"
"test","immoral","scenario2",37,"How morally wrong would it be for Josh to. . . steal another person's car?","Totally morally fine","Somewhat morally fine","In between","Somewhat morally wrong","Totally morally wrong","Not applicable","na",600,"na","na","na","survey","na","na","na","na","na","na",1,2,2,248613,5,2861,0,1,34,"female",4,"right-handed",NA,NA,NA,NA,NA,NA,NA,"Firefox",46,1280,800,"Windows","en-US",0.89,NA,"9iihwXGlzAVzPInX"
"test","irrational","scenario2",47,"How morally wrong would it be for Josh to. . . pay 1000 dollars for a ride?","Totally morally fine","Somewhat morally fine","In between","Somewhat morally wrong","Totally morally wrong","Not applicable","na",600,"na","na","na","survey","na","na","na","na","na","na",1,2,2,252325,5,3711,0,1,34,"female",4,"right-handed",NA,NA,NA,NA,NA,NA,NA,"Firefox",46,1280,800,"Windows","en-US",0.89,NA,"9iihwXGlzAVzPInX"
"test","improbable","scenario2",42,"How morally wrong would it be for Josh to. . . convince airport to delay flight?","Totally morally fine","Somewhat morally fine","In between","Somewhat morally wrong","Totally morally wrong","Not applicable","na",600,"na","na","na","survey","na","na","na","na","na","na",1,2,2,256479,4,4153,0,1,34,"female",4,"right-handed",NA,NA,NA,NA,NA,NA,NA,"Firefox",46,1280,800,"Windows","en-US",0.89,NA,"9iihwXGlzAVzPInX"
"test","improbable","scenario2",44,"How morally wrong would it be for Josh to. . . arrange for a private plane?","Totally morally fine","Somewhat morally fine","In between","Somewhat morally wrong","Totally morally wrong","Not applicable","na",600,"na","na","na","survey","na","na","na","na","na","na",1,2,2,259053,1,2573,0,1,34,"female",4,"right-handed",NA,NA,NA,NA,NA,NA,NA,"Firefox",46,1280,800,"Windows","en-US",0.89,NA,"9iihwXGlzAVzPInX"
"test","irrational","scenario2",45,"How morally wrong would it be for Josh to. . . book a flight for next year?","Totally morally fine","Somewhat morally fine","In between","Somewhat morally wrong","Totally morally wrong","Not applicable","na",600,"na","na","na","survey","na","na","na","na","na","na",1,2,2,260687,1,1633,0,1,34,"female",4,"right-handed",NA,NA,NA,NA,NA,NA,NA,"Firefox",46,1280,800,"Windows","en-US",0.89,NA,"9iihwXGlzAVzPInX"
"test","impossible","scenario3",58,"How morally wrong would it be for Brian to. . . use some monopoly money instead?","Totally morally fine","Somewhat morally fine","In between","Somewhat morally wrong","Totally morally wrong","Not applicable","na",600,"na","na","na","survey","na","na","na","na","na","na",1,3,2,274907,5,3967,0,1,34,"female",4,"right-handed",NA,NA,NA,NA,NA,NA,NA,"Firefox",46,1280,800,"Windows","en-US",0.89,NA,"9iihwXGlzAVzPInX"
"test","impossible","scenario3",60,"How morally wrong would it be for Brian to. . . get the money by sneezing a lot?","Totally morally fine","Somewhat morally fine","In between","Somewhat morally wrong","Totally morally wrong","Not applicable","na",600,"na","na","na","survey","na","na","na","na","na","na",1,3,2,276891,5,1983,0,1,34,"female",4,"right-handed",NA,NA,NA,NA,NA,NA,NA,"Firefox",46,1280,800,"Windows","en-US",0.89,NA,"9iihwXGlzAVzPInX"
"test","impossible","scenario3",59,"How morally wrong would it be for Brian to. . . take pictures of missing bills?","Totally morally fine","Somewhat morally fine","In between","Somewhat morally wrong","Totally morally wrong","Not applicable","na",600,"na","na","na","survey","na","na","na","na","na","na",1,3,2,279936,5,3043,0,1,34,"female",4,"right-handed",NA,NA,NA,NA,NA,NA,NA,"Firefox",46,1280,800,"Windows","en-US",0.89,NA,"9iihwXGlzAVzPInX"
"test","immoral","scenario3",64,"How morally wrong would it be for Brian to. . . give new customers incorrect change?","Totally morally fine","Somewhat morally fine","In between","Somewhat morally wrong","Totally morally wrong","Not applicable","na",600,"na","na","na","survey","na","na","na","na","na","na",1,3,2,283007,5,3069,0,1,34,"female",4,"right-handed",NA,NA,NA,NA,NA,NA,NA,"Firefox",46,1280,800,"Windows","en-US",0.89,NA,"9iihwXGlzAVzPInX"
"test","possible","scenario3",56,"How morally wrong would it be for Brian to. . . write a check for $50.75?","Totally morally fine","Somewhat morally fine","In between","Somewhat morally wrong","Totally morally wrong","Not applicable","na",600,"na","na","na","survey","na","na","na","na","na","na",1,3,2,286601,1,3593,0,1,34,"female",4,"right-handed",NA,NA,NA,NA,NA,NA,NA,"Firefox",46,1280,800,"Windows","en-US",0.89,NA,"9iihwXGlzAVzPInX"
"test","irrational","scenario3",69,"How morally wrong would it be for Brian to. . . close the store five hours early?","Totally morally fine","Somewhat morally fine","In between","Somewhat morally wrong","Totally morally wrong","Not applicable","na",600,"na","na","na","survey","na","na","na","na","na","na",1,3,2,290275,5,3673,0,1,34,"female",4,"right-handed",NA,NA,NA,NA,NA,NA,NA,"Firefox",46,1280,800,"Windows","en-US",0.89,NA,"9iihwXGlzAVzPInX"
"test","improbable","scenario3",67,"How morally wrong would it be for Brian to. . . get a child to donate the money?","Totally morally fine","Somewhat morally fine","In between","Somewhat morally wrong","Totally morally wrong","Not applicable","na",600,"na","na","na","survey","na","na","na","na","na","na",1,3,2,292577,5,2301,0,1,34,"female",4,"right-handed",NA,NA,NA,NA,NA,NA,NA,"Firefox",46,1280,800,"Windows","en-US",0.89,NA,"9iihwXGlzAVzPInX"
"test","possible","scenario3",50,"How morally wrong would it be for Brian to. . . ask other employees what to do?","Totally morally fine","Somewhat morally fine","In between","Somewhat morally wrong","Totally morally wrong","Not applicable","na",600,"na","na","na","survey","na","na","na","na","na","na",1,3,2,295767,1,3189,0,1,34,"female",4,"right-handed",NA,NA,NA,NA,NA,NA,NA,"Firefox",46,1280,800,"Windows","en-US",0.89,NA,"9iihwXGlzAVzPInX"
"test","possible","scenario3",52,"How morally wrong would it be for Brian to. . . sell something he owns for money?","Totally morally fine","Somewhat morally fine","In between","Somewhat morally wrong","Totally morally wrong","Not applicable","na",600,"na","na","na","survey","na","na","na","na","na","na",1,3,2,298397,1,2629,0,1,34,"female",4,"right-handed",NA,NA,NA,NA,NA,NA,NA,"Firefox",46,1280,800,"Windows","en-US",0.89,NA,"9iihwXGlzAVzPInX"
"test","immoral","scenario3",62,"How morally wrong would it be for Brian to. . . steal money from a coworker?","Totally morally fine","Somewhat morally fine","In between","Somewhat morally wrong","Totally morally wrong","Not applicable","na",600,"na","na","na","survey","na","na","na","na","na","na",1,3,2,300676,5,2278,0,1,34,"female",4,"right-handed",NA,NA,NA,NA,NA,NA,NA,"Firefox",46,1280,800,"Windows","en-US",0.89,NA,"9iihwXGlzAVzPInX"
"test","possible","scenario3",54,"How morally wrong would it be for Brian to. . . add in money from his daily tips?","Totally morally fine","Somewhat morally fine","In between","Somewhat morally wrong","Totally morally wrong","Not applicable","na",600,"na","na","na","survey","na","na","na","na","na","na",1,3,2,303819,1,3141,0,1,34,"female",4,"right-handed",NA,NA,NA,NA,NA,NA,NA,"Firefox",46,1280,800,"Windows","en-US",0.89,NA,"9iihwXGlzAVzPInX"
"test","irrational","scenario3",72,"How morally wrong would it be for Brian to. . . discount food to encourage tipping?","Totally morally fine","Somewhat morally fine","In between","Somewhat morally wrong","Totally morally wrong","Not applicable","na",600,"na","na","na","survey","na","na","na","na","na","na",1,3,2,308441,3,4621,0,1,34,"female",4,"right-handed",NA,NA,NA,NA,NA,NA,NA,"Firefox",46,1280,800,"Windows","en-US",0.89,NA,"9iihwXGlzAVzPInX"
"test","possible","scenario3",49,"How morally wrong would it be for Brian to. . . explain the situation to his boss?","Totally morally fine","Somewhat morally fine","In between","Somewhat morally wrong","Totally morally wrong","Not applicable","na",600,"na","na","na","survey","na","na","na","na","na","na",1,3,2,310915,1,2473,0,1,34,"female",4,"right-handed",NA,NA,NA,NA,NA,NA,NA,"Firefox",46,1280,800,"Windows","en-US",0.89,NA,"9iihwXGlzAVzPInX"
"test","improbable","scenario3",68,"How morally wrong would it be for Brian to. . . receive a 100 dollar tip?","Totally morally fine","Somewhat morally fine","In between","Somewhat morally wrong","Totally morally wrong","Not applicable","na",600,"na","na","na","survey","na","na","na","na","na","na",1,3,2,312812,1,1896,0,1,34,"female",4,"right-handed",NA,NA,NA,NA,NA,NA,NA,"Firefox",46,1280,800,"Windows","en-US",0.89,NA,"9iihwXGlzAVzPInX"
"test","possible","scenario3",51,"How morally wrong would it be for Brian to. . . get a payday advance loan?","Totally morally fine","Somewhat morally fine","In between","Somewhat morally wrong","Totally morally wrong","Not applicable","na",600,"na","na","na","survey","na","na","na","na","na","na",1,3,2,314525,1,1711,0,1,34,"female",4,"right-handed",NA,NA,NA,NA,NA,NA,NA,"Firefox",46,1280,800,"Windows","en-US",0.89,NA,"9iihwXGlzAVzPInX"
"test","improbable","scenario3",65,"How morally wrong would it be for Brian to. . . find the money on the ground?","Totally morally fine","Somewhat morally fine","In between","Somewhat morally wrong","Totally morally wrong","Not applicable","na",600,"na","na","na","survey","na","na","na","na","na","na",1,3,2,316611,1,2085,0,1,34,"female",4,"right-handed",NA,NA,NA,NA,NA,NA,NA,"Firefox",46,1280,800,"Windows","en-US",0.89,NA,"9iihwXGlzAVzPInX"
"test","immoral","scenario3",61,"How morally wrong would it be for Brian to. . . overcharge the next customers?","Totally morally fine","Somewhat morally fine","In between","Somewhat morally wrong","Totally morally wrong","Not applicable","na",600,"na","na","na","survey","na","na","na","na","na","na",1,3,2,319395,5,2783,0,1,34,"female",4,"right-handed",NA,NA,NA,NA,NA,NA,NA,"Firefox",46,1280,800,"Windows","en-US",0.89,NA,"9iihwXGlzAVzPInX"
"test","possible","scenario3",55,"How morally wrong would it be for Brian to. . . borrow money from a friend?","Totally morally fine","Somewhat morally fine","In between","Somewhat morally wrong","Totally morally wrong","Not applicable","na",600,"na","na","na","survey","na","na","na","na","na","na",1,3,2,322873,1,3477,0,1,34,"female",4,"right-handed",NA,NA,NA,NA,NA,NA,NA,"Firefox",46,1280,800,"Windows","en-US",0.89,NA,"9iihwXGlzAVzPInX"
"test","irrational","scenario3",71,"How morally wrong would it be for Brian to. . . try to invent new pastries?","Totally morally fine","Somewhat morally fine","In between","Somewhat morally wrong","Totally morally wrong","Not applicable","na",600,"na","na","na","survey","na","na","na","na","na","na",1,3,2,325906,1,3032,0,1,34,"female",4,"right-handed",NA,NA,NA,NA,NA,NA,NA,"Firefox",46,1280,800,"Windows","en-US",0.89,NA,"9iihwXGlzAVzPInX"
"test","improbable","scenario3",66,"How morally wrong would it be for Brian to. . . discover the money is in his pocket?","Totally morally fine","Somewhat morally fine","In between","Somewhat morally wrong","Totally morally wrong","Not applicable","na",600,"na","na","na","survey","na","na","na","na","na","na",1,3,2,328537,1,2629,0,1,34,"female",4,"right-handed",NA,NA,NA,NA,NA,NA,NA,"Firefox",46,1280,800,"Windows","en-US",0.89,NA,"9iihwXGlzAVzPInX"
"test","possible","scenario3",53,"How morally wrong would it be for Brian to. . . use money from his own wallet?","Totally morally fine","Somewhat morally fine","In between","Somewhat morally wrong","Totally morally wrong","Not applicable","na",600,"na","na","na","survey","na","na","na","na","na","na",1,3,2,330543,1,2005,0,1,34,"female",4,"right-handed",NA,NA,NA,NA,NA,NA,NA,"Firefox",46,1280,800,"Windows","en-US",0.89,NA,"9iihwXGlzAVzPInX"
"test","immoral","scenario3",63,"How morally wrong would it be for Brian to. . . lie about how much the bakery sold?","Totally morally fine","Somewhat morally fine","In between","Somewhat morally wrong","Totally morally wrong","Not applicable","na",600,"na","na","na","survey","na","na","na","na","na","na",1,3,2,335259,5,4715,0,1,34,"female",4,"right-handed",NA,NA,NA,NA,NA,NA,NA,"Firefox",46,1280,800,"Windows","en-US",0.89,NA,"9iihwXGlzAVzPInX"
"test","irrational","scenario3",70,"How morally wrong would it be for Brian to. . . pay with his retirement fund?","Totally morally fine","Somewhat morally fine","In between","Somewhat morally wrong","Totally morally wrong","Not applicable","na",600,"na","na","na","survey","na","na","na","na","na","na",1,3,2,339077,1,3817,0,1,34,"female",4,"right-handed",NA,NA,NA,NA,NA,NA,NA,"Firefox",46,1280,800,"Windows","en-US",0.89,NA,"9iihwXGlzAVzPInX"
"test","impossible","scenario3",57,"How morally wrong would it be for Brian to. . . turn the cash register invisible?","Totally morally fine","Somewhat morally fine","In between","Somewhat morally wrong","Totally morally wrong","Not applicable","na",600,"na","na","na","survey","na","na","na","na","na","na",1,3,2,342679,6,3601,0,1,34,"female",4,"right-handed",NA,NA,NA,NA,NA,NA,NA,"Firefox",46,1280,800,"Windows","en-US",0.89,NA,"9iihwXGlzAVzPInX"
"test","possible","scenario5",103,"How morally wrong would it be for Mary to. . . ask her mom to bring the homework?","Totally morally fine","Somewhat morally fine","In between","Somewhat morally wrong","Totally morally wrong","Not applicable","na",600,"na","na","na","survey","na","na","na","na","na","na",1,5,2,360719,1,2706,0,1,34,"female",4,"right-handed",NA,NA,NA,NA,NA,NA,NA,"Firefox",46,1280,800,"Windows","en-US",0.89,NA,"9iihwXGlzAVzPInX"
"test","improbable","scenario5",113,"How morally wrong would it be for Mary to. . . discover her teacher is absent?","Totally morally fine","Somewhat morally fine","In between","Somewhat morally wrong","Totally morally wrong","Not applicable","na",600,"na","na","na","survey","na","na","na","na","na","na",1,5,2,363467,1,2747,0,1,34,"female",4,"right-handed",NA,NA,NA,NA,NA,NA,NA,"Firefox",46,1280,800,"Windows","en-US",0.89,NA,"9iihwXGlzAVzPInX"
"test","possible","scenario5",97,"How morally wrong would it be for Mary to. . . run home to get her homework?","Totally morally fine","Somewhat morally fine","In between","Somewhat morally wrong","Totally morally wrong","Not applicable","na",600,"na","na","na","survey","na","na","na","na","na","na",1,5,2,365085,1,1617,0,1,34,"female",4,"right-handed",NA,NA,NA,NA,NA,NA,NA,"Firefox",46,1280,800,"Windows","en-US",0.89,NA,"9iihwXGlzAVzPInX"
"test","immoral","scenario5",111,"How morally wrong would it be for Mary to. . . forge an excuse note?","Totally morally fine","Somewhat morally fine","In between","Somewhat morally wrong","Totally morally wrong","Not applicable","na",600,"na","na","na","survey","na","na","na","na","na","na",1,5,2,369891,4,4805,0,1,34,"female",4,"right-handed",NA,NA,NA,NA,NA,NA,NA,"Firefox",46,1280,800,"Windows","en-US",0.89,NA,"9iihwXGlzAVzPInX"
"test","impossible","scenario5",107,"How morally wrong would it be for Mary to. . . turn in several socks instead?","Totally morally fine","Somewhat morally fine","In between","Somewhat morally wrong","Totally morally wrong","Not applicable","na",600,"na","na","na","survey","na","na","na","na","na","na",1,5,2,372738,5,2846,0,1,34,"female",4,"right-handed",NA,NA,NA,NA,NA,NA,NA,"Firefox",46,1280,800,"Windows","en-US",0.89,NA,"9iihwXGlzAVzPInX"
"test","possible","scenario5",98,"How morally wrong would it be for Mary to. . . bring in her homework tomorrow?","Totally morally fine","Somewhat morally fine","In between","Somewhat morally wrong","Totally morally wrong","Not applicable","na",600,"na","na","na","survey","na","na","na","na","na","na",1,5,2,375569,1,2829,0,1,34,"female",4,"right-handed",NA,NA,NA,NA,NA,NA,NA,"Firefox",46,1280,800,"Windows","en-US",0.89,NA,"9iihwXGlzAVzPInX"
"test","irrational","scenario5",119,"How morally wrong would it be for Mary to. . . turn in a completely blank page?","Totally morally fine","Somewhat morally fine","In between","Somewhat morally wrong","Totally morally wrong","Not applicable","na",600,"na","na","na","survey","na","na","na","na","na","na",1,5,2,378867,2,3297,0,1,34,"female",4,"right-handed",NA,NA,NA,NA,NA,NA,NA,"Firefox",46,1280,800,"Windows","en-US",0.89,NA,"9iihwXGlzAVzPInX"
"test","improbable","scenario5",115,"How morally wrong would it be for Mary to. . . remember she has an extra copy?","Totally morally fine","Somewhat morally fine","In between","Somewhat morally wrong","Totally morally wrong","Not applicable","na",600,"na","na","na","survey","na","na","na","na","na","na",1,5,2,381225,1,2357,0,1,34,"female",4,"right-handed",NA,NA,NA,NA,NA,NA,NA,"Firefox",46,1280,800,"Windows","en-US",0.89,NA,"9iihwXGlzAVzPInX"
"test","possible","scenario5",102,"How morally wrong would it be for Mary to. . . quickly redo the homework assignment?","Totally morally fine","Somewhat morally fine","In between","Somewhat morally wrong","Totally morally wrong","Not applicable","na",600,"na","na","na","survey","na","na","na","na","na","na",1,5,2,382951,1,1725,0,1,34,"female",4,"right-handed",NA,NA,NA,NA,NA,NA,NA,"Firefox",46,1280,800,"Windows","en-US",0.89,NA,"9iihwXGlzAVzPInX"
"test","improbable","scenario5",114,"How morally wrong would it be for Mary to. . . learn school is canceled today?","Totally morally fine","Somewhat morally fine","In between","Somewhat morally wrong","Totally morally wrong","Not applicable","na",600,"na","na","na","survey","na","na","na","na","na","na",1,5,2,385270,1,2318,0,1,34,"female",4,"right-handed",NA,NA,NA,NA,NA,NA,NA,"Firefox",46,1280,800,"Windows","en-US",0.89,NA,"9iihwXGlzAVzPInX"
"test","irrational","scenario5",118,"How morally wrong would it be for Mary to. . . look under the lunchroom tables?","Totally morally fine","Somewhat morally fine","In between","Somewhat morally wrong","Totally morally wrong","Not applicable","na",600,"na","na","na","survey","na","na","na","na","na","na",1,5,2,387672,1,2400,0,1,34,"female",4,"right-handed",NA,NA,NA,NA,NA,NA,NA,"Firefox",46,1280,800,"Windows","en-US",0.89,NA,"9iihwXGlzAVzPInX"
"test","irrational","scenario5",117,"How morally wrong would it be for Mary to. . . ask her mom to FedEx the homework?","Totally morally fine","Somewhat morally fine","In between","Somewhat morally wrong","Totally morally wrong","Not applicable","na",600,"na","na","na","survey","na","na","na","na","na","na",1,5,2,391369,3,3695,0,1,34,"female",4,"right-handed",NA,NA,NA,NA,NA,NA,NA,"Firefox",46,1280,800,"Windows","en-US",0.89,NA,"9iihwXGlzAVzPInX"
"test","possible","scenario5",99,"How morally wrong would it be for Mary to. . . ask for an extra-credit assignment?","Totally morally fine","Somewhat morally fine","In between","Somewhat morally wrong","Totally morally wrong","Not applicable","na",600,"na","na","na","survey","na","na","na","na","na","na",1,5,2,393398,1,2028,0,1,34,"female",4,"right-handed",NA,NA,NA,NA,NA,NA,NA,"Firefox",46,1280,800,"Windows","en-US",0.89,NA,"9iihwXGlzAVzPInX"
"test","improbable","scenario5",116,"How morally wrong would it be for Mary to. . . be given an A by mistake?","Totally morally fine","Somewhat morally fine","In between","Somewhat morally wrong","Totally morally wrong","Not applicable","na",600,"na","na","na","survey","na","na","na","na","na","na",1,5,2,396637,5,3237,0,1,34,"female",4,"right-handed",NA,NA,NA,NA,NA,NA,NA,"Firefox",46,1280,800,"Windows","en-US",0.89,NA,"9iihwXGlzAVzPInX"
"test","immoral","scenario5",112,"How morally wrong would it be for Mary to. . . lie about being sick to go home?","Totally morally fine","Somewhat morally fine","In between","Somewhat morally wrong","Totally morally wrong","Not applicable","na",600,"na","na","na","survey","na","na","na","na","na","na",1,5,2,399779,3,3141,0,1,34,"female",4,"right-handed",NA,NA,NA,NA,NA,NA,NA,"Firefox",46,1280,800,"Windows","en-US",0.89,NA,"9iihwXGlzAVzPInX"
"test","immoral","scenario5",110,"How morally wrong would it be for Mary to. . . put her name on a friend's homework?","Totally morally fine","Somewhat morally fine","In between","Somewhat morally wrong","Totally morally wrong","Not applicable","na",600,"na","na","na","survey","na","na","na","na","na","na",1,5,2,402866,5,3086,0,1,34,"female",4,"right-handed",NA,NA,NA,NA,NA,NA,NA,"Firefox",46,1280,800,"Windows","en-US",0.89,NA,"9iihwXGlzAVzPInX"
"test","possible","scenario5",100,"How morally wrong would it be for Mary to. . . ask her mom what she should do?","Totally morally fine","Somewhat morally fine","In between","Somewhat morally wrong","Totally morally wrong","Not applicable","na",600,"na","na","na","survey","na","na","na","na","na","na",1,5,2,405473,1,2605,0,1,34,"female",4,"right-handed",NA,NA,NA,NA,NA,NA,NA,"Firefox",46,1280,800,"Windows","en-US",0.89,NA,"9iihwXGlzAVzPInX"
"test","immoral","scenario5",109,"How morally wrong would it be for Mary to. . . quickly copy someone's homework?","Totally morally fine","Somewhat morally fine","In between","Somewhat morally wrong","Totally morally wrong","Not applicable","na",600,"na","na","na","survey","na","na","na","na","na","na",1,5,2,409448,4,3974,0,1,34,"female",4,"right-handed",NA,NA,NA,NA,NA,NA,NA,"Firefox",46,1280,800,"Windows","en-US",0.89,NA,"9iihwXGlzAVzPInX"
"test","impossible","scenario5",106,"How morally wrong would it be for Mary to. . . remind herself yesterday evening?","Totally morally fine","Somewhat morally fine","In between","Somewhat morally wrong","Totally morally wrong","Not applicable","na",600,"na","na","na","survey","na","na","na","na","na","na",1,5,2,412507,1,3057,0,1,34,"female",4,"right-handed",NA,NA,NA,NA,NA,NA,NA,"Firefox",46,1280,800,"Windows","en-US",0.89,NA,"9iihwXGlzAVzPInX"
"test","irrational","scenario5",120,"How morally wrong would it be for Mary to. . . turn in last week's homework again?","Totally morally fine","Somewhat morally fine","In between","Somewhat morally wrong","Totally morally wrong","Not applicable","na",600,"na","na","na","survey","na","na","na","na","na","na",1,5,2,415026,4,2518,0,1,34,"female",4,"right-handed",NA,NA,NA,NA,NA,NA,NA,"Firefox",46,1280,800,"Windows","en-US",0.89,NA,"9iihwXGlzAVzPInX"
"test","impossible","scenario5",105,"How morally wrong would it be for Mary to. . . have her homework teleported?","Totally morally fine","Somewhat morally fine","In between","Somewhat morally wrong","Totally morally wrong","Not applicable","na",600,"na","na","na","survey","na","na","na","na","na","na",1,5,2,417694,6,2666,0,1,34,"female",4,"right-handed",NA,NA,NA,NA,NA,NA,NA,"Firefox",46,1280,800,"Windows","en-US",0.89,NA,"9iihwXGlzAVzPInX"
"test","possible","scenario5",104,"How morally wrong would it be for Mary to. . . have her parents call the teacher?","Totally morally fine","Somewhat morally fine","In between","Somewhat morally wrong","Totally morally wrong","Not applicable","na",600,"na","na","na","survey","na","na","na","na","na","na",1,5,2,420324,1,2628,0,1,34,"female",4,"right-handed",NA,NA,NA,NA,NA,NA,NA,"Firefox",46,1280,800,"Windows","en-US",0.89,NA,"9iihwXGlzAVzPInX"
"test","impossible","scenario5",108,"How morally wrong would it be for Mary to. . . erase the teacher's memory?","Totally morally fine","Somewhat morally fine","In between","Somewhat morally wrong","Totally morally wrong","Not applicable","na",600,"na","na","na","survey","na","na","na","na","na","na",1,5,2,423148,5,2822,0,1,34,"female",4,"right-handed",NA,NA,NA,NA,NA,NA,NA,"Firefox",46,1280,800,"Windows","en-US",0.89,NA,"9iihwXGlzAVzPInX"
"test","possible","scenario5",101,"How morally wrong would it be for Mary to. . . explain what happened to her teacher?","Totally morally fine","Somewhat morally fine","In between","Somewhat morally wrong","Totally morally wrong","Not applicable","na",600,"na","na","na","survey","na","na","na","na","na","na",1,5,2,425918,1,2768,0,1,34,"female",4,"right-handed",NA,NA,NA,NA,NA,NA,NA,"Firefox",46,1280,800,"Windows","en-US",0.89,NA,"9iihwXGlzAVzPInX"
"test","immoral","scenario6",133,"How morally wrong would it be for Brad to. . . secretly take his friends' food?","Totally morally fine","Somewhat morally fine","In between","Somewhat morally wrong","Totally morally wrong","Not applicable","na",600,"na","na","na","survey","na","na","na","na","na","na",1,6,2,438327,5,3540,0,1,34,"female",4,"right-handed",NA,NA,NA,NA,NA,NA,NA,"Firefox",46,1280,800,"Windows","en-US",0.89,NA,"9iihwXGlzAVzPInX"
"test","possible","scenario6",121,"How morally wrong would it be for Brad to. . . stay put and wait for help?","Totally morally fine","Somewhat morally fine","In between","Somewhat morally wrong","Totally morally wrong","Not applicable","na",600,"na","na","na","survey","na","na","na","na","na","na",1,6,2,440978,1,2650,0,1,34,"female",4,"right-handed",NA,NA,NA,NA,NA,NA,NA,"Firefox",46,1280,800,"Windows","en-US",0.89,NA,"9iihwXGlzAVzPInX"
"test","possible","scenario6",125,"How morally wrong would it be for Brad to. . . get more food by hunting and fishing?","Totally morally fine","Somewhat morally fine","In between","Somewhat morally wrong","Totally morally wrong","Not applicable","na",600,"na","na","na","survey","na","na","na","na","na","na",1,6,2,442730,1,1750,0,1,34,"female",4,"right-handed",NA,NA,NA,NA,NA,NA,NA,"Firefox",46,1280,800,"Windows","en-US",0.89,NA,"9iihwXGlzAVzPInX"
"test","improbable","scenario6",139,"How morally wrong would it be for Brad to. . . meet a former expedition guide?","Totally morally fine","Somewhat morally fine","In between","Somewhat morally wrong","Totally morally wrong","Not applicable","na",600,"na","na","na","survey","na","na","na","na","na","na",1,6,2,445151,1,2420,0,1,34,"female",4,"right-handed",NA,NA,NA,NA,NA,NA,NA,"Firefox",46,1280,800,"Windows","en-US",0.89,NA,"9iihwXGlzAVzPInX"
"test","improbable","scenario6",138,"How morally wrong would it be for Brad to. . . find stream showing the path out?","Totally morally fine","Somewhat morally fine","In between","Somewhat morally wrong","Totally morally wrong","Not applicable","na",600,"na","na","na","survey","na","na","na","na","na","na",1,6,2,446900,1,1748,0,1,34,"female",4,"right-handed",NA,NA,NA,NA,NA,NA,NA,"Firefox",46,1280,800,"Windows","en-US",0.89,NA,"9iihwXGlzAVzPInX"
"test","possible","scenario6",122,"How morally wrong would it be for Brad to. . . follow a river out of the wilderness?","Totally morally fine","Somewhat morally fine","In between","Somewhat morally wrong","Totally morally wrong","Not applicable","na",600,"na","na","na","survey","na","na","na","na","na","na",1,6,2,448416,1,1515,0,1,34,"female",4,"right-handed",NA,NA,NA,NA,NA,NA,NA,"Firefox",46,1280,800,"Windows","en-US",0.89,NA,"9iihwXGlzAVzPInX"
"test","improbable","scenario6",137,"How morally wrong would it be for Brad to. . . find thermal vent to keep warm?","Totally morally fine","Somewhat morally fine","In between","Somewhat morally wrong","Totally morally wrong","Not applicable","na",600,"na","na","na","survey","na","na","na","na","na","na",1,6,2,450215,1,1798,0,1,34,"female",4,"right-handed",NA,NA,NA,NA,NA,NA,NA,"Firefox",46,1280,800,"Windows","en-US",0.89,NA,"9iihwXGlzAVzPInX"
"test","possible","scenario6",123,"How morally wrong would it be for Brad to. . . alert rescuers with emergency flares?","Totally morally fine","Somewhat morally fine","In between","Somewhat morally wrong","Totally morally wrong","Not applicable","na",600,"na","na","na","survey","na","na","na","na","na","na",1,6,2,452018,1,1802,0,1,34,"female",4,"right-handed",NA,NA,NA,NA,NA,NA,NA,"Firefox",46,1280,800,"Windows","en-US",0.89,NA,"9iihwXGlzAVzPInX"
"test","irrational","scenario6",144,"How morally wrong would it be for Brad to. . . eat all their food immediately?","Totally morally fine","Somewhat morally fine","In between","Somewhat morally wrong","Totally morally wrong","Not applicable","na",600,"na","na","na","survey","na","na","na","na","na","na",1,6,2,455093,5,3074,0,1,34,"female",4,"right-handed",NA,NA,NA,NA,NA,NA,NA,"Firefox",46,1280,800,"Windows","en-US",0.89,NA,"9iihwXGlzAVzPInX"
"test","irrational","scenario6",142,"How morally wrong would it be for Brad to. . . eat random berries and leaves?","Totally morally fine","Somewhat morally fine","In between","Somewhat morally wrong","Totally morally wrong","Not applicable","na",600,"na","na","na","survey","na","na","na","na","na","na",1,6,2,458468,3,3374,0,1,34,"female",4,"right-handed",NA,NA,NA,NA,NA,NA,NA,"Firefox",46,1280,800,"Windows","en-US",0.89,NA,"9iihwXGlzAVzPInX"
"test","improbable","scenario6",140,"How morally wrong would it be for Brad to. . . find an abandoned bear cave?","Totally morally fine","Somewhat morally fine","In between","Somewhat morally wrong","Totally morally wrong","Not applicable","na",600,"na","na","na","survey","na","na","na","na","na","na",1,6,2,461814,1,3344,0,1,34,"female",4,"right-handed",NA,NA,NA,NA,NA,NA,NA,"Firefox",46,1280,800,"Windows","en-US",0.89,NA,"9iihwXGlzAVzPInX"
"test","immoral","scenario6",136,"How morally wrong would it be for Brad to. . . kill his friend's pet dog for food?","Totally morally fine","Somewhat morally fine","In between","Somewhat morally wrong","Totally morally wrong","Not applicable","na",600,"na","na","na","survey","na","na","na","na","na","na",1,6,2,464615,5,2800,0,1,34,"female",4,"right-handed",NA,NA,NA,NA,NA,NA,NA,"Firefox",46,1280,800,"Windows","en-US",0.89,NA,"9iihwXGlzAVzPInX"
"test","impossible","scenario6",131,"How morally wrong would it be for Brad to. . . alert airplanes overhead  by yelling?","Totally morally fine","Somewhat morally fine","In between","Somewhat morally wrong","Totally morally wrong","Not applicable","na",600,"na","na","na","survey","na","na","na","na","na","na",1,6,2,469166,1,4550,0,1,34,"female",4,"right-handed",NA,NA,NA,NA,NA,NA,NA,"Firefox",46,1280,800,"Windows","en-US",0.89,NA,"9iihwXGlzAVzPInX"
"test","irrational","scenario6",141,"How morally wrong would it be for Brad to. . . go hunting for water buffalo?","Totally morally fine","Somewhat morally fine","In between","Somewhat morally wrong","Totally morally wrong","Not applicable","na",600,"na","na","na","survey","na","na","na","na","na","na",1,6,2,473126,6,3958,0,1,34,"female",4,"right-handed",NA,NA,NA,NA,NA,NA,NA,"Firefox",46,1280,800,"Windows","en-US",0.89,NA,"9iihwXGlzAVzPInX"
"test","impossible","scenario6",129,"How morally wrong would it be for Brad to. . . use his mind to keep everyone warm?","Totally morally fine","Somewhat morally fine","In between","Somewhat morally wrong","Totally morally wrong","Not applicable","na",600,"na","na","na","survey","na","na","na","na","na","na",1,6,2,477942,3,4814,0,1,34,"female",4,"right-handed",NA,NA,NA,NA,NA,NA,NA,"Firefox",46,1280,800,"Windows","en-US",0.89,NA,"9iihwXGlzAVzPInX"
"test","possible","scenario6",128,"How morally wrong would it be for Brad to. . . be found by the rescue crew?","Totally morally fine","Somewhat morally fine","In between","Somewhat morally wrong","Totally morally wrong","Not applicable","na",600,"na","na","na","survey","na","na","na","na","na","na",1,6,2,480643,1,2700,0,1,34,"female",4,"right-handed",NA,NA,NA,NA,NA,NA,NA,"Firefox",46,1280,800,"Windows","en-US",0.89,NA,"9iihwXGlzAVzPInX"
"test","impossible","scenario6",132,"How morally wrong would it be for Brad to. . . grind up rocks for food and water?","Totally morally fine","Somewhat morally fine","In between","Somewhat morally wrong","Totally morally wrong","Not applicable","na",600,"na","na","na","survey","na","na","na","na","na","na",1,6,2,485551,6,4907,0,1,34,"female",4,"right-handed",NA,NA,NA,NA,NA,NA,NA,"Firefox",46,1280,800,"Windows","en-US",0.89,NA,"9iihwXGlzAVzPInX"
"test","possible","scenario6",126,"How morally wrong would it be for Brad to. . . build a large fire to alert rescuers?","Totally morally fine","Somewhat morally fine","In between","Somewhat morally wrong","Totally morally wrong","Not applicable","na",600,"na","na","na","survey","na","na","na","na","na","na",1,6,2,488515,1,2963,0,1,34,"female",4,"right-handed",NA,NA,NA,NA,NA,NA,NA,"Firefox",46,1280,800,"Windows","en-US",0.89,NA,"9iihwXGlzAVzPInX"
"test","irrational","scenario6",143,"How morally wrong would it be for Brad to. . . each venture off independently?","Totally morally fine","Somewhat morally fine","In between","Somewhat morally wrong","Totally morally wrong","Not applicable","na",600,"na","na","na","survey","na","na","na","na","na","na",1,6,2,491874,1,3358,0,1,34,"female",4,"right-handed",NA,NA,NA,NA,NA,NA,NA,"Firefox",46,1280,800,"Windows","en-US",0.89,NA,"9iihwXGlzAVzPInX"
"test","immoral","scenario6",134,"How morally wrong would it be for Brad to. . . leave the weakest people behind?","Totally morally fine","Somewhat morally fine","In between","Somewhat morally wrong","Totally morally wrong","Not applicable","na",600,"na","na","na","survey","na","na","na","na","na","na",1,6,2,495105,5,3229,0,1,34,"female",4,"right-handed",NA,NA,NA,NA,NA,NA,NA,"Firefox",46,1280,800,"Windows","en-US",0.89,NA,"9iihwXGlzAVzPInX"
"test","immoral","scenario6",135,"How morally wrong would it be for Brad to. . . rob other hikers they meet?","Totally morally fine","Somewhat morally fine","In between","Somewhat morally wrong","Totally morally wrong","Not applicable","na",600,"na","na","na","survey","na","na","na","na","na","na",1,6,2,497399,5,2293,0,1,34,"female",4,"right-handed",NA,NA,NA,NA,NA,NA,NA,"Firefox",46,1280,800,"Windows","en-US",0.89,NA,"9iihwXGlzAVzPInX"
"test","possible","scenario6",127,"How morally wrong would it be for Brad to. . . create a shelter to stay warm?","Totally morally fine","Somewhat morally fine","In between","Somewhat morally wrong","Totally morally wrong","Not applicable","na",600,"na","na","na","survey","na","na","na","na","na","na",1,6,2,499748,1,2348,0,1,34,"female",4,"right-handed",NA,NA,NA,NA,NA,NA,NA,"Firefox",46,1280,800,"Windows","en-US",0.89,NA,"9iihwXGlzAVzPInX"
"test","impossible","scenario6",130,"How morally wrong would it be for Brad to. . . make new jackets from pine trees?","Totally morally fine","Somewhat morally fine","In between","Somewhat morally wrong","Totally morally wrong","Not applicable","na",600,"na","na","na","survey","na","na","na","na","na","na",1,6,2,501709,1,1959,0,1,34,"female",4,"right-handed",NA,NA,NA,NA,NA,NA,NA,"Firefox",46,1280,800,"Windows","en-US",0.89,NA,"9iihwXGlzAVzPInX"
"test","possible","scenario6",124,"How morally wrong would it be for Brad to. . . find a river for fresh water and fish?","Totally morally fine","Somewhat morally fine","In between","Somewhat morally wrong","Totally morally wrong","Not applicable","na",600,"na","na","na","survey","na","na","na","na","na","na",1,6,2,503879,1,2169,0,1,34,"female",4,"right-handed",NA,NA,NA,NA,NA,NA,NA,"Firefox",46,1280,800,"Windows","en-US",0.89,NA,"9iihwXGlzAVzPInX"
"test","possible","scenario4",78,"How morally wrong would it be for Liz to. . . pay for a one-day gym pass?","Totally morally fine","Somewhat morally fine","In between","Somewhat morally wrong","Totally morally wrong","Not applicable","na",600,"na","na","na","survey","na","na","na","na","na","na",1,4,2,514334,1,2806,0,1,34,"female",4,"right-handed",NA,NA,NA,NA,NA,NA,NA,"Firefox",46,1280,800,"Windows","en-US",0.89,NA,"9iihwXGlzAVzPInX"
"test","impossible","scenario4",83,"How morally wrong would it be for Liz to. . . renew her membership by blinking?","Totally morally fine","Somewhat morally fine","In between","Somewhat morally wrong","Totally morally wrong","Not applicable","na",600,"na","na","na","survey","na","na","na","na","na","na",1,4,2,516014,1,1679,0,1,34,"female",4,"right-handed",NA,NA,NA,NA,NA,NA,NA,"Firefox",46,1280,800,"Windows","en-US",0.89,NA,"9iihwXGlzAVzPInX"
"test","irrational","scenario4",96,"How morally wrong would it be for Liz to. . . run back and forth across lobby?","Totally morally fine","Somewhat morally fine","In between","Somewhat morally wrong","Totally morally wrong","Not applicable","na",600,"na","na","na","survey","na","na","na","na","na","na",1,4,2,518790,1,2775,0,1,34,"female",4,"right-handed",NA,NA,NA,NA,NA,NA,NA,"Firefox",46,1280,800,"Windows","en-US",0.89,NA,"9iihwXGlzAVzPInX"
"test","improbable","scenario4",90,"How morally wrong would it be for Liz to. . . receive a free lifetime membership?","Totally morally fine","Somewhat morally fine","In between","Somewhat morally wrong","Totally morally wrong","Not applicable","na",600,"na","na","na","survey","na","na","na","na","na","na",1,4,2,520456,1,1665,0,1,34,"female",4,"right-handed",NA,NA,NA,NA,NA,NA,NA,"Firefox",46,1280,800,"Windows","en-US",0.89,NA,"9iihwXGlzAVzPInX"
"test","impossible","scenario4",84,"How morally wrong would it be for Liz to. . . turn her hat into a gym pass?","Totally morally fine","Somewhat morally fine","In between","Somewhat morally wrong","Totally morally wrong","Not applicable","na",600,"na","na","na","survey","na","na","na","na","na","na",1,4,2,524710,6,4252,0,1,34,"female",4,"right-handed",NA,NA,NA,NA,NA,NA,NA,"Firefox",46,1280,800,"Windows","en-US",0.89,NA,"9iihwXGlzAVzPInX"
"test","possible","scenario4",79,"How morally wrong would it be for Liz to. . . be allowed in just this once?","Totally morally fine","Somewhat morally fine","In between","Somewhat morally wrong","Totally morally wrong","Not applicable","na",600,"na","na","na","survey","na","na","na","na","na","na",1,4,2,527527,2,2816,0,1,34,"female",4,"right-handed",NA,NA,NA,NA,NA,NA,NA,"Firefox",46,1280,800,"Windows","en-US",0.89,NA,"9iihwXGlzAVzPInX"
"test","improbable","scenario4",91,"How morally wrong would it be for Liz to. . . find a one-day pass in purse?","Totally morally fine","Somewhat morally fine","In between","Somewhat morally wrong","Totally morally wrong","Not applicable","na",600,"na","na","na","survey","na","na","na","na","na","na",1,4,2,529976,1,2448,0,1,34,"female",4,"right-handed",NA,NA,NA,NA,NA,NA,NA,"Firefox",46,1280,800,"Windows","en-US",0.89,NA,"9iihwXGlzAVzPInX"
"test","immoral","scenario4",87,"How morally wrong would it be for Liz to. . . sneak past the gym attendant?","Totally morally fine","Somewhat morally fine","In between","Somewhat morally wrong","Totally morally wrong","Not applicable","na",600,"na","na","na","survey","na","na","na","na","na","na",1,4,2,532536,5,2559,0,1,34,"female",4,"right-handed",NA,NA,NA,NA,NA,NA,NA,"Firefox",46,1280,800,"Windows","en-US",0.89,NA,"9iihwXGlzAVzPInX"
"test","possible","scenario4",74,"How morally wrong would it be for Liz to. . . go for a run outside instead?","Totally morally fine","Somewhat morally fine","In between","Somewhat morally wrong","Totally morally wrong","Not applicable","na",600,"na","na","na","survey","na","na","na","na","na","na",1,4,2,535492,1,2954,0,1,34,"female",4,"right-handed",NA,NA,NA,NA,NA,NA,NA,"Firefox",46,1280,800,"Windows","en-US",0.89,NA,"9iihwXGlzAVzPInX"
"test","immoral","scenario4",88,"How morally wrong would it be for Liz to. . . go in the back door without paying?","Totally morally fine","Somewhat morally fine","In between","Somewhat morally wrong","Totally morally wrong","Not applicable","na",600,"na","na","na","survey","na","na","na","na","na","na",1,4,2,538658,5,3164,0,1,34,"female",4,"right-handed",NA,NA,NA,NA,NA,NA,NA,"Firefox",46,1280,800,"Windows","en-US",0.89,NA,"9iihwXGlzAVzPInX"
"test","possible","scenario4",80,"How morally wrong would it be for Liz to. . . renew her gym membership?","Totally morally fine","Somewhat morally fine","In between","Somewhat morally wrong","Totally morally wrong","Not applicable","na",600,"na","na","na","survey","na","na","na","na","na","na",1,4,2,541202,1,2542,0,1,34,"female",4,"right-handed",NA,NA,NA,NA,NA,NA,NA,"Firefox",46,1280,800,"Windows","en-US",0.89,NA,"9iihwXGlzAVzPInX"
"test","irrational","scenario4",94,"How morally wrong would it be for Liz to. . . try again in three minutes?","Totally morally fine","Somewhat morally fine","In between","Somewhat morally wrong","Totally morally wrong","Not applicable","na",600,"na","na","na","survey","na","na","na","na","na","na",1,4,2,544430,1,3227,0,1,34,"female",4,"right-handed",NA,NA,NA,NA,NA,NA,NA,"Firefox",46,1280,800,"Windows","en-US",0.89,NA,"9iihwXGlzAVzPInX"
"test","improbable","scenario4",89,"How morally wrong would it be for Liz to. . . learn the gym stopped checking IDs?","Totally morally fine","Somewhat morally fine","In between","Somewhat morally wrong","Totally morally wrong","Not applicable","na",600,"na","na","na","survey","na","na","na","na","na","na",1,4,2,548124,1,3693,0,1,34,"female",4,"right-handed",NA,NA,NA,NA,NA,NA,NA,"Firefox",46,1280,800,"Windows","en-US",0.89,NA,"9iihwXGlzAVzPInX"
"test","possible","scenario4",73,"How morally wrong would it be for Liz to. . . wait to go to the gym tomorrow?","Totally morally fine","Somewhat morally fine","In between","Somewhat morally wrong","Totally morally wrong","Not applicable","na",600,"na","na","na","survey","na","na","na","na","na","na",1,4,2,550622,1,2496,0,1,34,"female",4,"right-handed",NA,NA,NA,NA,NA,NA,NA,"Firefox",46,1280,800,"Windows","en-US",0.89,NA,"9iihwXGlzAVzPInX"
"test","immoral","scenario4",85,"How morally wrong would it be for Liz to. . . take someone else's gym card?","Totally morally fine","Somewhat morally fine","In between","Somewhat morally wrong","Totally morally wrong","Not applicable","na",600,"na","na","na","survey","na","na","na","na","na","na",1,4,2,553734,4,3110,0,1,34,"female",4,"right-handed",NA,NA,NA,NA,NA,NA,NA,"Firefox",46,1280,800,"Windows","en-US",0.89,NA,"9iihwXGlzAVzPInX"
"test","improbable","scenario4",92,"How morally wrong would it be for Liz to. . . discover the gym is free today?","Totally morally fine","Somewhat morally fine","In between","Somewhat morally wrong","Totally morally wrong","Not applicable","na",600,"na","na","na","survey","na","na","na","na","na","na",1,4,2,556284,1,2549,0,1,34,"female",4,"right-handed",NA,NA,NA,NA,NA,NA,NA,"Firefox",46,1280,800,"Windows","en-US",0.89,NA,"9iihwXGlzAVzPInX"
"test","impossible","scenario4",82,"How morally wrong would it be for Liz to. . . wish all gyms to be free forever?","Totally morally fine","Somewhat morally fine","In between","Somewhat morally wrong","Totally morally wrong","Not applicable","na",600,"na","na","na","survey","na","na","na","na","na","na",1,4,2,559273,1,2988,0,1,34,"female",4,"right-handed",NA,NA,NA,NA,NA,NA,NA,"Firefox",46,1280,800,"Windows","en-US",0.89,NA,"9iihwXGlzAVzPInX"
"test","irrational","scenario4",95,"How morally wrong would it be for Liz to. . . complain in a foreign language?","Totally morally fine","Somewhat morally fine","In between","Somewhat morally wrong","Totally morally wrong","Not applicable","na",600,"na","na","na","survey","na","na","na","na","na","na",1,4,2,563324,3,4050,0,1,34,"female",4,"right-handed",NA,NA,NA,NA,NA,NA,NA,"Firefox",46,1280,800,"Windows","en-US",0.89,NA,"9iihwXGlzAVzPInX"
"test","possible","scenario4",77,"How morally wrong would it be for Liz to. . . use a friend's guest pass?","Totally morally fine","Somewhat morally fine","In between","Somewhat morally wrong","Totally morally wrong","Not applicable","na",600,"na","na","na","survey","na","na","na","na","na","na",1,4,2,567525,1,4200,0,1,34,"female",4,"right-handed",NA,NA,NA,NA,NA,NA,NA,"Firefox",46,1280,800,"Windows","en-US",0.89,NA,"9iihwXGlzAVzPInX"
"test","possible","scenario4",76,"How morally wrong would it be for Liz to. . . eat lunch instead of working out?","Totally morally fine","Somewhat morally fine","In between","Somewhat morally wrong","Totally morally wrong","Not applicable","na",600,"na","na","na","survey","na","na","na","na","na","na",1,4,2,570039,1,2513,0,1,34,"female",4,"right-handed",NA,NA,NA,NA,NA,NA,NA,"Firefox",46,1280,800,"Windows","en-US",0.89,NA,"9iihwXGlzAVzPInX"
"test","possible","scenario4",75,"How morally wrong would it be for Liz to. . . decide to lift weights at home?","Totally morally fine","Somewhat morally fine","In between","Somewhat morally wrong","Totally morally wrong","Not applicable","na",600,"na","na","na","survey","na","na","na","na","na","na",1,4,2,571888,1,1848,0,1,34,"female",4,"right-handed",NA,NA,NA,NA,NA,NA,NA,"Firefox",46,1280,800,"Windows","en-US",0.89,NA,"9iihwXGlzAVzPInX"
"test","impossible","scenario4",81,"How morally wrong would it be for Liz to. . . turn invisible and go in?","Totally morally fine","Somewhat morally fine","In between","Somewhat morally wrong","Totally morally wrong","Not applicable","na",600,"na","na","na","survey","na","na","na","na","na","na",1,4,2,574176,6,2287,0,1,34,"female",4,"right-handed",NA,NA,NA,NA,NA,NA,NA,"Firefox",46,1280,800,"Windows","en-US",0.89,NA,"9iihwXGlzAVzPInX"
"test","irrational","scenario4",93,"How morally wrong would it be for Liz to. . . decide to never exercise again?","Totally morally fine","Somewhat morally fine","In between","Somewhat morally wrong","Totally morally wrong","Not applicable","na",600,"na","na","na","survey","na","na","na","na","na","na",1,4,2,577318,1,3141,0,1,34,"female",4,"right-handed",NA,NA,NA,NA,NA,NA,NA,"Firefox",46,1280,800,"Windows","en-US",0.89,NA,"9iihwXGlzAVzPInX"
"test","immoral","scenario4",86,"How morally wrong would it be for Liz to. . . claim she left her wallet inside?","Totally morally fine","Somewhat morally fine","In between","Somewhat morally wrong","Totally morally wrong","Not applicable","na",600,"na","na","na","survey","na","na","na","na","na","na",1,4,2,581170,4,3851,0,1,34,"female",4,"right-handed",NA,NA,NA,NA,NA,NA,NA,"Firefox",46,1280,800,"Windows","en-US",0.89,NA,"9iihwXGlzAVzPInX"
"test","immoral","scenario3",61,"How irrational would it be for Brian to. . . overcharge the next customers?","Totally rational","Somewhat rational","In between","Somewhat irrational","Totally irrational","Not applicable","na",600,"na","na","na","survey","na","na","na","na","na","na",1,3,3,227891,5,4991,0,2,36,"male",2,"right-handed",NA,NA,NA,NA,NA,NA,NA,"Chrome",51,1600,900,"MacOS","en-US",0.7,NA,"zbtJuze8JsGvS07g"
"test","possible","scenario3",56,"How irrational would it be for Brian to. . . write a check for $50.75?","Totally rational","Somewhat rational","In between","Somewhat irrational","Totally irrational","Not applicable","na",600,"na","na","na","survey","na","na","na","na","na","na",1,3,3,231503,4,3612,0,2,36,"male",2,"right-handed",NA,NA,NA,NA,NA,NA,NA,"Chrome",51,1600,900,"MacOS","en-US",0.7,NA,"zbtJuze8JsGvS07g"
"test","irrational","scenario3",69,"How irrational would it be for Brian to. . . close the store five hours early?","Totally rational","Somewhat rational","In between","Somewhat irrational","Totally irrational","Not applicable","na",600,"na","na","na","survey","na","na","na","na","na","na",1,3,3,234579,5,3075,0,2,36,"male",2,"right-handed",NA,NA,NA,NA,NA,NA,NA,"Chrome",51,1600,900,"MacOS","en-US",0.7,NA,"zbtJuze8JsGvS07g"
"test","improbable","scenario3",68,"How irrational would it be for Brian to. . . receive a 100 dollar tip?","Totally rational","Somewhat rational","In between","Somewhat irrational","Totally irrational","Not applicable","na",600,"na","na","na","survey","na","na","na","na","na","na",1,3,3,240019,3,5439,0,2,36,"male",2,"right-handed",NA,NA,NA,NA,NA,NA,NA,"Chrome",51,1600,900,"MacOS","en-US",0.7,NA,"zbtJuze8JsGvS07g"
"test","possible","scenario3",52,"How irrational would it be for Brian to. . . sell something he owns for money?","Totally rational","Somewhat rational","In between","Somewhat irrational","Totally irrational","Not applicable","na",600,"na","na","na","survey","na","na","na","na","na","na",1,3,3,244115,4,4096,0,2,36,"male",2,"right-handed",NA,NA,NA,NA,NA,NA,NA,"Chrome",51,1600,900,"MacOS","en-US",0.7,NA,"zbtJuze8JsGvS07g"
"test","immoral","scenario3",62,"How irrational would it be for Brian to. . . steal money from a coworker?","Totally rational","Somewhat rational","In between","Somewhat irrational","Totally irrational","Not applicable","na",600,"na","na","na","survey","na","na","na","na","na","na",1,3,3,246386,5,2271,0,2,36,"male",2,"right-handed",NA,NA,NA,NA,NA,NA,NA,"Chrome",51,1600,900,"MacOS","en-US",0.7,NA,"zbtJuze8JsGvS07g"
"test","possible","scenario3",49,"How irrational would it be for Brian to. . . explain the situation to his boss?","Totally rational","Somewhat rational","In between","Somewhat irrational","Totally irrational","Not applicable","na",600,"na","na","na","survey","na","na","na","na","na","na",1,3,3,249199,2,2812,0,2,36,"male",2,"right-handed",NA,NA,NA,NA,NA,NA,NA,"Chrome",51,1600,900,"MacOS","en-US",0.7,NA,"zbtJuze8JsGvS07g"
"test","irrational","scenario3",72,"How irrational would it be for Brian to. . . discount food to encourage tipping?","Totally rational","Somewhat rational","In between","Somewhat irrational","Totally irrational","Not applicable","na",600,"na","na","na","survey","na","na","na","na","na","na",1,3,3,253363,4,4163,0,2,36,"male",2,"right-handed",NA,NA,NA,NA,NA,NA,NA,"Chrome",51,1600,900,"MacOS","en-US",0.7,NA,"zbtJuze8JsGvS07g"
"test","possible","scenario3",50,"How irrational would it be for Brian to. . . ask other employees what to do?","Totally rational","Somewhat rational","In between","Somewhat irrational","Totally irrational","Not applicable","na",600,"na","na","na","survey","na","na","na","na","na","na",1,3,3,257103,2,3739,0,2,36,"male",2,"right-handed",NA,NA,NA,NA,NA,NA,NA,"Chrome",51,1600,900,"MacOS","en-US",0.7,NA,"zbtJuze8JsGvS07g"
"test","immoral","scenario3",64,"How irrational would it be for Brian to. . . give new customers incorrect change?","Totally rational","Somewhat rational","In between","Somewhat irrational","Totally irrational","Not applicable","na",600,"na","na","na","survey","na","na","na","na","na","na",1,3,3,260618,5,3514,0,2,36,"male",2,"right-handed",NA,NA,NA,NA,NA,NA,NA,"Chrome",51,1600,900,"MacOS","en-US",0.7,NA,"zbtJuze8JsGvS07g"
"test","irrational","scenario3",70,"How irrational would it be for Brian to. . . pay with his retirement fund?","Totally rational","Somewhat rational","In between","Somewhat irrational","Totally irrational","Not applicable","na",600,"na","na","na","survey","na","na","na","na","na","na",1,3,3,263554,4,2935,0,2,36,"male",2,"right-handed",NA,NA,NA,NA,NA,NA,NA,"Chrome",51,1600,900,"MacOS","en-US",0.7,NA,"zbtJuze8JsGvS07g"
"test","possible","scenario3",54,"How irrational would it be for Brian to. . . add in money from his daily tips?","Totally rational","Somewhat rational","In between","Somewhat irrational","Totally irrational","Not applicable","na",600,"na","na","na","survey","na","na","na","na","na","na",1,3,3,267258,4,3702,0,2,36,"male",2,"right-handed",NA,NA,NA,NA,NA,NA,NA,"Chrome",51,1600,900,"MacOS","en-US",0.7,NA,"zbtJuze8JsGvS07g"
"test","immoral","scenario3",63,"How irrational would it be for Brian to. . . lie about how much the bakery sold?","Totally rational","Somewhat rational","In between","Somewhat irrational","Totally irrational","Not applicable","na",600,"na","na","na","survey","na","na","na","na","na","na",1,3,3,270782,4,3523,0,2,36,"male",2,"right-handed",NA,NA,NA,NA,NA,NA,NA,"Chrome",51,1600,900,"MacOS","en-US",0.7,NA,"zbtJuze8JsGvS07g"
"test","improbable","scenario3",67,"How irrational would it be for Brian to. . . get a child to donate the money?","Totally rational","Somewhat rational","In between","Somewhat irrational","Totally irrational","Not applicable","na",600,"na","na","na","survey","na","na","na","na","na","na",1,3,3,273522,5,2739,0,2,36,"male",2,"right-handed",NA,NA,NA,NA,NA,NA,NA,"Chrome",51,1600,900,"MacOS","en-US",0.7,NA,"zbtJuze8JsGvS07g"
"test","impossible","scenario3",59,"How irrational would it be for Brian to. . . take pictures of missing bills?","Totally rational","Somewhat rational","In between","Somewhat irrational","Totally irrational","Not applicable","na",600,"na","na","na","survey","na","na","na","na","na","na",1,3,3,279730,5,6207,0,2,36,"male",2,"right-handed",NA,NA,NA,NA,NA,NA,NA,"Chrome",51,1600,900,"MacOS","en-US",0.7,NA,"zbtJuze8JsGvS07g"
"test","irrational","scenario3",71,"How irrational would it be for Brian to. . . try to invent new pastries?","Totally rational","Somewhat rational","In between","Somewhat irrational","Totally irrational","Not applicable","na",600,"na","na","na","survey","na","na","na","na","na","na",1,3,3,282817,5,3086,0,2,36,"male",2,"right-handed",NA,NA,NA,NA,NA,NA,NA,"Chrome",51,1600,900,"MacOS","en-US",0.7,NA,"zbtJuze8JsGvS07g"
"test","possible","scenario3",55,"How irrational would it be for Brian to. . . borrow money from a friend?","Totally rational","Somewhat rational","In between","Somewhat irrational","Totally irrational","Not applicable","na",600,"na","na","na","survey","na","na","na","na","na","na",1,3,3,285818,3,3000,0,2,36,"male",2,"right-handed",NA,NA,NA,NA,NA,NA,NA,"Chrome",51,1600,900,"MacOS","en-US",0.7,NA,"zbtJuze8JsGvS07g"
"test","improbable","scenario3",65,"How irrational would it be for Brian to. . . find the money on the ground?","Totally rational","Somewhat rational","In between","Somewhat irrational","Totally irrational","Not applicable","na",600,"na","na","na","survey","na","na","na","na","na","na",1,3,3,289466,3,3647,0,2,36,"male",2,"right-handed",NA,NA,NA,NA,NA,NA,NA,"Chrome",51,1600,900,"MacOS","en-US",0.7,NA,"zbtJuze8JsGvS07g"
"test","impossible","scenario3",57,"How irrational would it be for Brian to. . . turn the cash register invisible?","Totally rational","Somewhat rational","In between","Somewhat irrational","Totally irrational","Not applicable","na",600,"na","na","na","survey","na","na","na","na","na","na",1,3,3,293413,5,3946,0,2,36,"male",2,"right-handed",NA,NA,NA,NA,NA,NA,NA,"Chrome",51,1600,900,"MacOS","en-US",0.7,NA,"zbtJuze8JsGvS07g"
"test","possible","scenario3",51,"How irrational would it be for Brian to. . . get a payday advance loan?","Totally rational","Somewhat rational","In between","Somewhat irrational","Totally irrational","Not applicable","na",600,"na","na","na","survey","na","na","na","na","na","na",1,3,3,296449,5,3035,0,2,36,"male",2,"right-handed",NA,NA,NA,NA,NA,NA,NA,"Chrome",51,1600,900,"MacOS","en-US",0.7,NA,"zbtJuze8JsGvS07g"
"test","improbable","scenario3",66,"How irrational would it be for Brian to. . . discover the money is in his pocket?","Totally rational","Somewhat rational","In between","Somewhat irrational","Totally irrational","Not applicable","na",600,"na","na","na","survey","na","na","na","na","na","na",1,3,3,301241,4,4792,0,2,36,"male",2,"right-handed",NA,NA,NA,NA,NA,NA,NA,"Chrome",51,1600,900,"MacOS","en-US",0.7,NA,"zbtJuze8JsGvS07g"
"test","impossible","scenario3",58,"How irrational would it be for Brian to. . . use some monopoly money instead?","Totally rational","Somewhat rational","In between","Somewhat irrational","Totally irrational","Not applicable","na",600,"na","na","na","survey","na","na","na","na","na","na",1,3,3,304069,5,2827,0,2,36,"male",2,"right-handed",NA,NA,NA,NA,NA,NA,NA,"Chrome",51,1600,900,"MacOS","en-US",0.7,NA,"zbtJuze8JsGvS07g"
"test","impossible","scenario3",60,"How irrational would it be for Brian to. . . get the money by sneezing a lot?","Totally rational","Somewhat rational","In between","Somewhat irrational","Totally irrational","Not applicable","na",600,"na","na","na","survey","na","na","na","na","na","na",1,3,3,307425,5,3355,0,2,36,"male",2,"right-handed",NA,NA,NA,NA,NA,NA,NA,"Chrome",51,1600,900,"MacOS","en-US",0.7,NA,"zbtJuze8JsGvS07g"
"test","possible","scenario3",53,"How irrational would it be for Brian to. . . use money from his own wallet?","Totally rational","Somewhat rational","In between","Somewhat irrational","Totally irrational","Not applicable","na",600,"na","na","na","survey","na","na","na","na","na","na",1,3,3,359577,2,52151,0,2,36,"male",2,"right-handed",NA,NA,NA,NA,NA,NA,NA,"Chrome",51,1600,900,"MacOS","en-US",0.7,NA,"zbtJuze8JsGvS07g"
"test","impossible","scenario4",81,"How irrational would it be for Liz to. . . turn invisible and go in?","Totally rational","Somewhat rational","In between","Somewhat irrational","Totally irrational","Not applicable","na",600,"na","na","na","survey","na","na","na","na","na","na",1,4,3,414354,5,5695,0,2,36,"male",2,"right-handed",NA,NA,NA,NA,NA,NA,NA,"Chrome",51,1600,900,"MacOS","en-US",0.7,NA,"zbtJuze8JsGvS07g"
"test","improbable","scenario4",92,"How irrational would it be for Liz to. . . discover the gym is free today?","Totally rational","Somewhat rational","In between","Somewhat irrational","Totally irrational","Not applicable","na",600,"na","na","na","survey","na","na","na","na","na","na",1,4,3,418546,3,4191,0,2,36,"male",2,"right-handed",NA,NA,NA,NA,NA,NA,NA,"Chrome",51,1600,900,"MacOS","en-US",0.7,NA,"zbtJuze8JsGvS07g"
"test","possible","scenario4",78,"How irrational would it be for Liz to. . . pay for a one-day gym pass?","Totally rational","Somewhat rational","In between","Somewhat irrational","Totally irrational","Not applicable","na",600,"na","na","na","survey","na","na","na","na","na","na",1,4,3,421134,1,2587,0,2,36,"male",2,"right-handed",NA,NA,NA,NA,NA,NA,NA,"Chrome",51,1600,900,"MacOS","en-US",0.7,NA,"zbtJuze8JsGvS07g"
"test","irrational","scenario4",96,"How irrational would it be for Liz to. . . run back and forth across lobby?","Totally rational","Somewhat rational","In between","Somewhat irrational","Totally irrational","Not applicable","na",600,"na","na","na","survey","na","na","na","na","na","na",1,4,3,424578,5,3443,0,2,36,"male",2,"right-handed",NA,NA,NA,NA,NA,NA,NA,"Chrome",51,1600,900,"MacOS","en-US",0.7,NA,"zbtJuze8JsGvS07g"
"test","improbable","scenario4",89,"How irrational would it be for Liz to. . . learn the gym stopped checking IDs?","Totally rational","Somewhat rational","In between","Somewhat irrational","Totally irrational","Not applicable","na",600,"na","na","na","survey","na","na","na","na","na","na",1,4,3,428258,3,3679,0,2,36,"male",2,"right-handed",NA,NA,NA,NA,NA,NA,NA,"Chrome",51,1600,900,"MacOS","en-US",0.7,NA,"zbtJuze8JsGvS07g"
"test","irrational","scenario4",94,"How irrational would it be for Liz to. . . try again in three minutes?","Totally rational","Somewhat rational","In between","Somewhat irrational","Totally irrational","Not applicable","na",600,"na","na","na","survey","na","na","na","na","na","na",1,4,3,431550,5,3291,0,2,36,"male",2,"right-handed",NA,NA,NA,NA,NA,NA,NA,"Chrome",51,1600,900,"MacOS","en-US",0.7,NA,"zbtJuze8JsGvS07g"
"test","possible","scenario4",75,"How irrational would it be for Liz to. . . decide to lift weights at home?","Totally rational","Somewhat rational","In between","Somewhat irrational","Totally irrational","Not applicable","na",600,"na","na","na","survey","na","na","na","na","na","na",1,4,3,434798,1,3247,0,2,36,"male",2,"right-handed",NA,NA,NA,NA,NA,NA,NA,"Chrome",51,1600,900,"MacOS","en-US",0.7,NA,"zbtJuze8JsGvS07g"
"test","irrational","scenario4",95,"How irrational would it be for Liz to. . . complain in a foreign language?","Totally rational","Somewhat rational","In between","Somewhat irrational","Totally irrational","Not applicable","na",600,"na","na","na","survey","na","na","na","na","na","na",1,4,3,438194,5,3395,0,2,36,"male",2,"right-handed",NA,NA,NA,NA,NA,NA,NA,"Chrome",51,1600,900,"MacOS","en-US",0.7,NA,"zbtJuze8JsGvS07g"
"test","irrational","scenario4",93,"How irrational would it be for Liz to. . . decide to never exercise again?","Totally rational","Somewhat rational","In between","Somewhat irrational","Totally irrational","Not applicable","na",600,"na","na","na","survey","na","na","na","na","na","na",1,4,3,443178,5,4983,0,2,36,"male",2,"right-handed",NA,NA,NA,NA,NA,NA,NA,"Chrome",51,1600,900,"MacOS","en-US",0.7,NA,"zbtJuze8JsGvS07g"
"test","immoral","scenario4",85,"How irrational would it be for Liz to. . . take someone else's gym card?","Totally rational","Somewhat rational","In between","Somewhat irrational","Totally irrational","Not applicable","na",600,"na","na","na","survey","na","na","na","na","na","na",1,4,3,452913,4,9735,0,2,36,"male",2,"right-handed",NA,NA,NA,NA,NA,NA,NA,"Chrome",51,1600,900,"MacOS","en-US",0.7,NA,"zbtJuze8JsGvS07g"
"test","impossible","scenario4",82,"How irrational would it be for Liz to. . . wish all gyms to be free forever?","Totally rational","Somewhat rational","In between","Somewhat irrational","Totally irrational","Not applicable","na",600,"na","na","na","survey","na","na","na","na","na","na",1,4,3,458981,3,6067,0,2,36,"male",2,"right-handed",NA,NA,NA,NA,NA,NA,NA,"Chrome",51,1600,900,"MacOS","en-US",0.7,NA,"zbtJuze8JsGvS07g"
"test","possible","scenario4",79,"How irrational would it be for Liz to. . . be allowed in just this once?","Totally rational","Somewhat rational","In between","Somewhat irrational","Totally irrational","Not applicable","na",600,"na","na","na","survey","na","na","na","na","na","na",1,4,3,462713,4,3731,0,2,36,"male",2,"right-handed",NA,NA,NA,NA,NA,NA,NA,"Chrome",51,1600,900,"MacOS","en-US",0.7,NA,"zbtJuze8JsGvS07g"
"test","immoral","scenario4",87,"How irrational would it be for Liz to. . . sneak past the gym attendant?","Totally rational","Somewhat rational","In between","Somewhat irrational","Totally irrational","Not applicable","na",600,"na","na","na","survey","na","na","na","na","na","na",1,4,3,465501,4,2787,0,2,36,"male",2,"right-handed",NA,NA,NA,NA,NA,NA,NA,"Chrome",51,1600,900,"MacOS","en-US",0.7,NA,"zbtJuze8JsGvS07g"
"test","possible","scenario4",80,"How irrational would it be for Liz to. . . renew her gym membership?","Totally rational","Somewhat rational","In between","Somewhat irrational","Totally irrational","Not applicable","na",600,"na","na","na","survey","na","na","na","na","na","na",1,4,3,467825,1,2323,0,2,36,"male",2,"right-handed",NA,NA,NA,NA,NA,NA,NA,"Chrome",51,1600,900,"MacOS","en-US",0.7,NA,"zbtJuze8JsGvS07g"
"test","improbable","scenario4",91,"How irrational would it be for Liz to. . . find a one-day pass in purse?","Totally rational","Somewhat rational","In between","Somewhat irrational","Totally irrational","Not applicable","na",600,"na","na","na","survey","na","na","na","na","na","na",1,4,3,470649,2,2824,0,2,36,"male",2,"right-handed",NA,NA,NA,NA,NA,NA,NA,"Chrome",51,1600,900,"MacOS","en-US",0.7,NA,"zbtJuze8JsGvS07g"
"test","immoral","scenario4",86,"How irrational would it be for Liz to. . . claim she left her wallet inside?","Totally rational","Somewhat rational","In between","Somewhat irrational","Totally irrational","Not applicable","na",600,"na","na","na","survey","na","na","na","na","na","na",1,4,3,474301,3,3651,0,2,36,"male",2,"right-handed",NA,NA,NA,NA,NA,NA,NA,"Chrome",51,1600,900,"MacOS","en-US",0.7,NA,"zbtJuze8JsGvS07g"
"test","improbable","scenario4",90,"How irrational would it be for Liz to. . . receive a free lifetime membership?","Totally rational","Somewhat rational","In between","Somewhat irrational","Totally irrational","Not applicable","na",600,"na","na","na","survey","na","na","na","na","na","na",1,4,3,478405,5,4103,0,2,36,"male",2,"right-handed",NA,NA,NA,NA,NA,NA,NA,"Chrome",51,1600,900,"MacOS","en-US",0.7,NA,"zbtJuze8JsGvS07g"
"test","possible","scenario4",74,"How irrational would it be for Liz to. . . go for a run outside instead?","Totally rational","Somewhat rational","In between","Somewhat irrational","Totally irrational","Not applicable","na",600,"na","na","na","survey","na","na","na","na","na","na",1,4,3,481296,2,2890,0,2,36,"male",2,"right-handed",NA,NA,NA,NA,NA,NA,NA,"Chrome",51,1600,900,"MacOS","en-US",0.7,NA,"zbtJuze8JsGvS07g"
"test","immoral","scenario4",88,"How irrational would it be for Liz to. . . go in the back door without paying?","Totally rational","Somewhat rational","In between","Somewhat irrational","Totally irrational","Not applicable","na",600,"na","na","na","survey","na","na","na","na","na","na",1,4,3,484517,4,3220,0,2,36,"male",2,"right-handed",NA,NA,NA,NA,NA,NA,NA,"Chrome",51,1600,900,"MacOS","en-US",0.7,NA,"zbtJuze8JsGvS07g"
"test","possible","scenario4",76,"How irrational would it be for Liz to. . . eat lunch instead of working out?","Totally rational","Somewhat rational","In between","Somewhat irrational","Totally irrational","Not applicable","na",600,"na","na","na","survey","na","na","na","na","na","na",1,4,3,487909,3,3391,0,2,36,"male",2,"right-handed",NA,NA,NA,NA,NA,NA,NA,"Chrome",51,1600,900,"MacOS","en-US",0.7,NA,"zbtJuze8JsGvS07g"
"test","impossible","scenario4",84,"How irrational would it be for Liz to. . . turn her hat into a gym pass?","Totally rational","Somewhat rational","In between","Somewhat irrational","Totally irrational","Not applicable","na",600,"na","na","na","survey","na","na","na","na","na","na",1,4,3,490697,5,2788,0,2,36,"male",2,"right-handed",NA,NA,NA,NA,NA,NA,NA,"Chrome",51,1600,900,"MacOS","en-US",0.7,NA,"zbtJuze8JsGvS07g"
"test","impossible","scenario4",83,"How irrational would it be for Liz to. . . renew her membership by blinking?","Totally rational","Somewhat rational","In between","Somewhat irrational","Totally irrational","Not applicable","na",600,"na","na","na","survey","na","na","na","na","na","na",1,4,3,493356,5,2658,0,2,36,"male",2,"right-handed",NA,NA,NA,NA,NA,NA,NA,"Chrome",51,1600,900,"MacOS","en-US",0.7,NA,"zbtJuze8JsGvS07g"
"test","possible","scenario4",77,"How irrational would it be for Liz to. . . use a friend's guest pass?","Totally rational","Somewhat rational","In between","Somewhat irrational","Totally irrational","Not applicable","na",600,"na","na","na","survey","na","na","na","na","na","na",1,4,3,496288,3,2931,0,2,36,"male",2,"right-handed",NA,NA,NA,NA,NA,NA,NA,"Chrome",51,1600,900,"MacOS","en-US",0.7,NA,"zbtJuze8JsGvS07g"
"test","possible","scenario4",73,"How irrational would it be for Liz to. . . wait to go to the gym tomorrow?","Totally rational","Somewhat rational","In between","Somewhat irrational","Totally irrational","Not applicable","na",600,"na","na","na","survey","na","na","na","na","na","na",1,4,3,499888,2,3599,0,2,36,"male",2,"right-handed",NA,NA,NA,NA,NA,NA,NA,"Chrome",51,1600,900,"MacOS","en-US",0.7,NA,"zbtJuze8JsGvS07g"
"test","immoral","scenario1",15,"How irrational would it be for Heinz to. . . commit credit card fraud?","Totally rational","Somewhat rational","In between","Somewhat irrational","Totally irrational","Not applicable","na",600,"na","na","na","survey","na","na","na","na","na","na",1,1,3,568038,4,3211,0,2,36,"male",2,"right-handed",NA,NA,NA,NA,NA,NA,NA,"Chrome",51,1600,900,"MacOS","en-US",0.7,NA,"zbtJuze8JsGvS07g"
"test","possible","scenario1",3,"How irrational would it be for Heinz to. . . buy a different insurance plan?","Totally rational","Somewhat rational","In between","Somewhat irrational","Totally irrational","Not applicable","na",600,"na","na","na","survey","na","na","na","na","na","na",1,1,3,570819,2,2780,0,2,36,"male",2,"right-handed",NA,NA,NA,NA,NA,NA,NA,"Chrome",51,1600,900,"MacOS","en-US",0.7,NA,"zbtJuze8JsGvS07g"
"test","irrational","scenario1",21,"How irrational would it be for Heinz to. . . sell his own medication?","Totally rational","Somewhat rational","In between","Somewhat irrational","Totally irrational","Not applicable","na",600,"na","na","na","survey","na","na","na","na","na","na",1,1,3,574002,4,3183,0,2,36,"male",2,"right-handed",NA,NA,NA,NA,NA,NA,NA,"Chrome",51,1600,900,"MacOS","en-US",0.7,NA,"zbtJuze8JsGvS07g"
"test","impossible","scenario1",12,"How irrational would it be for Heinz to. . . get the money by clapping?","Totally rational","Somewhat rational","In between","Somewhat irrational","Totally irrational","Not applicable","na",600,"na","na","na","survey","na","na","na","na","na","na",1,1,3,576686,5,2683,0,2,36,"male",2,"right-handed",NA,NA,NA,NA,NA,NA,NA,"Chrome",51,1600,900,"MacOS","en-US",0.7,NA,"zbtJuze8JsGvS07g"
"test","improbable","scenario1",19,"How irrational would it be for Heinz to. . . receive the money from a stranger?","Totally rational","Somewhat rational","In between","Somewhat irrational","Totally irrational","Not applicable","na",600,"na","na","na","survey","na","na","na","na","na","na",1,1,3,586930,2,10243,0,2,36,"male",2,"right-handed",NA,NA,NA,NA,NA,NA,NA,"Chrome",51,1600,900,"MacOS","en-US",0.7,NA,"zbtJuze8JsGvS07g"
"test","immoral","scenario1",16,"How irrational would it be for Heinz to. . . get the medicine by stealing?","Totally rational","Somewhat rational","In between","Somewhat irrational","Totally irrational","Not applicable","na",600,"na","na","na","survey","na","na","na","na","na","na",1,1,3,590014,3,3083,0,2,36,"male",2,"right-handed",NA,NA,NA,NA,NA,NA,NA,"Chrome",51,1600,900,"MacOS","en-US",0.7,NA,"zbtJuze8JsGvS07g"
"test","impossible","scenario1",9,"How irrational would it be for Heinz to. . . be given the money by a turtle?","Totally rational","Somewhat rational","In between","Somewhat irrational","Totally irrational","Not applicable","na",600,"na","na","na","survey","na","na","na","na","na","na",1,1,3,592686,5,2671,0,2,36,"male",2,"right-handed",NA,NA,NA,NA,NA,NA,NA,"Chrome",51,1600,900,"MacOS","en-US",0.7,NA,"zbtJuze8JsGvS07g"
"test","immoral","scenario1",13,"How irrational would it be for Heinz to. . . steal the money from his work?","Totally rational","Somewhat rational","In between","Somewhat irrational","Totally irrational","Not applicable","na",600,"na","na","na","survey","na","na","na","na","na","na",1,1,3,595482,4,2795,0,2,36,"male",2,"right-handed",NA,NA,NA,NA,NA,NA,NA,"Chrome",51,1600,900,"MacOS","en-US",0.7,NA,"zbtJuze8JsGvS07g"
"test","possible","scenario1",6,"How irrational would it be for Heinz to. . . be given the money by a friend?","Totally rational","Somewhat rational","In between","Somewhat irrational","Totally irrational","Not applicable","na",600,"na","na","na","survey","na","na","na","na","na","na",1,1,3,599142,1,3659,0,2,36,"male",2,"right-handed",NA,NA,NA,NA,NA,NA,NA,"Chrome",51,1600,900,"MacOS","en-US",0.7,NA,"zbtJuze8JsGvS07g"
"test","immoral","scenario1",14,"How irrational would it be for Heinz to. . . blackmail someone for the money?","Totally rational","Somewhat rational","In between","Somewhat irrational","Totally irrational","Not applicable","na",600,"na","na","na","survey","na","na","na","na","na","na",1,1,3,602386,5,3243,0,2,36,"male",2,"right-handed",NA,NA,NA,NA,NA,NA,NA,"Chrome",51,1600,900,"MacOS","en-US",0.7,NA,"zbtJuze8JsGvS07g"
"test","possible","scenario1",4,"How irrational would it be for Heinz to. . . enroll in federal healthcare?","Totally rational","Somewhat rational","In between","Somewhat irrational","Totally irrational","Not applicable","na",600,"na","na","na","survey","na","na","na","na","na","na",1,1,3,605257,1,2870,0,2,36,"male",2,"right-handed",NA,NA,NA,NA,NA,NA,NA,"Chrome",51,1600,900,"MacOS","en-US",0.7,NA,"zbtJuze8JsGvS07g"
"test","improbable","scenario1",20,"How irrational would it be for Heinz to. . . discover a cheap new medicine?","Totally rational","Somewhat rational","In between","Somewhat irrational","Totally irrational","Not applicable","na",600,"na","na","na","survey","na","na","na","na","na","na",1,1,3,608086,2,2828,0,2,36,"male",2,"right-handed",NA,NA,NA,NA,NA,NA,NA,"Chrome",51,1600,900,"MacOS","en-US",0.7,NA,"zbtJuze8JsGvS07g"
"test","irrational","scenario1",23,"How irrational would it be for Heinz to. . . go on strike until wages increase?","Totally rational","Somewhat rational","In between","Somewhat irrational","Totally irrational","Not applicable","na",600,"na","na","na","survey","na","na","na","na","na","na",1,1,3,611098,5,3012,0,2,36,"male",2,"right-handed",NA,NA,NA,NA,NA,NA,NA,"Chrome",51,1600,900,"MacOS","en-US",0.7,NA,"zbtJuze8JsGvS07g"
"test","possible","scenario1",2,"How irrational would it be for Heinz to. . . use a generic medication instead?","Totally rational","Somewhat rational","In between","Somewhat irrational","Totally irrational","Not applicable","na",600,"na","na","na","survey","na","na","na","na","na","na",1,1,3,614309,1,3210,0,2,36,"male",2,"right-handed",NA,NA,NA,NA,NA,NA,NA,"Chrome",51,1600,900,"MacOS","en-US",0.7,NA,"zbtJuze8JsGvS07g"
"test","improbable","scenario1",17,"How irrational would it be for Heinz to. . . be  given the medicine by  a doctor?","Totally rational","Somewhat rational","In between","Somewhat irrational","Totally irrational","Not applicable","na",600,"na","na","na","survey","na","na","na","na","na","na",1,1,3,616697,1,2387,0,2,36,"male",2,"right-handed",NA,NA,NA,NA,NA,NA,NA,"Chrome",51,1600,900,"MacOS","en-US",0.7,NA,"zbtJuze8JsGvS07g"
"test","impossible","scenario1",10,"How irrational would it be for Heinz to. . . make the money time traveling?","Totally rational","Somewhat rational","In between","Somewhat irrational","Totally irrational","Not applicable","na",600,"na","na","na","survey","na","na","na","na","na","na",1,1,3,619821,5,3123,0,2,36,"male",2,"right-handed",NA,NA,NA,NA,NA,NA,NA,"Chrome",51,1600,900,"MacOS","en-US",0.7,NA,"zbtJuze8JsGvS07g"
"test","possible","scenario1",7,"How irrational would it be for Heinz to. . . loan the money from his family?","Totally rational","Somewhat rational","In between","Somewhat irrational","Totally irrational","Not applicable","na",600,"na","na","na","survey","na","na","na","na","na","na",1,1,3,624421,5,4599,0,2,36,"male",2,"right-handed",NA,NA,NA,NA,NA,NA,NA,"Chrome",51,1600,900,"MacOS","en-US",0.7,NA,"zbtJuze8JsGvS07g"
"test","possible","scenario1",5,"How irrational would it be for Heinz to. . . borrow the money from a bank?","Totally rational","Somewhat rational","In between","Somewhat irrational","Totally irrational","Not applicable","na",600,"na","na","na","survey","na","na","na","na","na","na",1,1,3,626817,1,2395,0,2,36,"male",2,"right-handed",NA,NA,NA,NA,NA,NA,NA,"Chrome",51,1600,900,"MacOS","en-US",0.7,NA,"zbtJuze8JsGvS07g"
"test","irrational","scenario1",24,"How irrational would it be for Heinz to. . . try random other medicines?","Totally rational","Somewhat rational","In between","Somewhat irrational","Totally irrational","Not applicable","na",600,"na","na","na","survey","na","na","na","na","na","na",1,1,3,629733,5,2915,0,2,36,"male",2,"right-handed",NA,NA,NA,NA,NA,NA,NA,"Chrome",51,1600,900,"MacOS","en-US",0.7,NA,"zbtJuze8JsGvS07g"
"test","improbable","scenario1",18,"How irrational would it be for Heinz to. . . inherit money from a close relative?","Totally rational","Somewhat rational","In between","Somewhat irrational","Totally irrational","Not applicable","na",600,"na","na","na","survey","na","na","na","na","na","na",1,1,3,632577,3,2843,0,2,36,"male",2,"right-handed",NA,NA,NA,NA,NA,NA,NA,"Chrome",51,1600,900,"MacOS","en-US",0.7,NA,"zbtJuze8JsGvS07g"
"test","impossible","scenario1",11,"How irrational would it be for Heinz to. . . grow the money on a tree?","Totally rational","Somewhat rational","In between","Somewhat irrational","Totally irrational","Not applicable","na",600,"na","na","na","survey","na","na","na","na","na","na",1,1,3,635013,5,2435,0,2,36,"male",2,"right-handed",NA,NA,NA,NA,NA,NA,NA,"Chrome",51,1600,900,"MacOS","en-US",0.7,NA,"zbtJuze8JsGvS07g"
"test","possible","scenario1",1,"How irrational would it be for Heinz to. . . sell some of his stocks or bonds?","Totally rational","Somewhat rational","In between","Somewhat irrational","Totally irrational","Not applicable","na",600,"na","na","na","survey","na","na","na","na","na","na",1,1,3,638821,2,3807,0,2,36,"male",2,"right-handed",NA,NA,NA,NA,NA,NA,NA,"Chrome",51,1600,900,"MacOS","en-US",0.7,NA,"zbtJuze8JsGvS07g"
"test","irrational","scenario1",22,"How irrational would it be for Heinz to. . . sell all his clothes for money?","Totally rational","Somewhat rational","In between","Somewhat irrational","Totally irrational","Not applicable","na",600,"na","na","na","survey","na","na","na","na","na","na",1,1,3,644069,4,5247,0,2,36,"male",2,"right-handed",NA,NA,NA,NA,NA,NA,NA,"Chrome",51,1600,900,"MacOS","en-US",0.7,NA,"zbtJuze8JsGvS07g"
"test","possible","scenario1",8,"How irrational would it be for Heinz to. . . sell an extra car for the money?","Totally rational","Somewhat rational","In between","Somewhat irrational","Totally irrational","Not applicable","na",600,"na","na","na","survey","na","na","na","na","na","na",1,1,3,647160,2,3090,0,2,36,"male",2,"right-handed",NA,NA,NA,NA,NA,NA,NA,"Chrome",51,1600,900,"MacOS","en-US",0.7,NA,"zbtJuze8JsGvS07g"
"test","irrational","scenario5",117,"How irrational would it be for Mary to. . . ask her mom to FedEx the homework?","Totally rational","Somewhat rational","In between","Somewhat irrational","Totally irrational","Not applicable","na",600,"na","na","na","survey","na","na","na","na","na","na",1,5,3,688420,5,4068,0,2,36,"male",2,"right-handed",NA,NA,NA,NA,NA,NA,NA,"Chrome",51,1600,900,"MacOS","en-US",0.7,NA,"zbtJuze8JsGvS07g"
"test","irrational","scenario5",120,"How irrational would it be for Mary to. . . turn in last week's homework again?","Totally rational","Somewhat rational","In between","Somewhat irrational","Totally irrational","Not applicable","na",600,"na","na","na","survey","na","na","na","na","na","na",1,5,3,691512,5,3091,0,2,36,"male",2,"right-handed",NA,NA,NA,NA,NA,NA,NA,"Chrome",51,1600,900,"MacOS","en-US",0.7,NA,"zbtJuze8JsGvS07g"
"test","improbable","scenario5",115,"How irrational would it be for Mary to. . . remember she has an extra copy?","Totally rational","Somewhat rational","In between","Somewhat irrational","Totally irrational","Not applicable","na",600,"na","na","na","survey","na","na","na","na","na","na",1,5,3,694943,3,3431,0,2,36,"male",2,"right-handed",NA,NA,NA,NA,NA,NA,NA,"Chrome",51,1600,900,"MacOS","en-US",0.7,NA,"zbtJuze8JsGvS07g"
"test","possible","scenario5",97,"How irrational would it be for Mary to. . . run home to get her homework?","Totally rational","Somewhat rational","In between","Somewhat irrational","Totally irrational","Not applicable","na",600,"na","na","na","survey","na","na","na","na","na","na",1,5,3,698099,2,3156,0,2,36,"male",2,"right-handed",NA,NA,NA,NA,NA,NA,NA,"Chrome",51,1600,900,"MacOS","en-US",0.7,NA,"zbtJuze8JsGvS07g"
"test","impossible","scenario5",105,"How irrational would it be for Mary to. . . have her homework teleported?","Totally rational","Somewhat rational","In between","Somewhat irrational","Totally irrational","Not applicable","na",600,"na","na","na","survey","na","na","na","na","na","na",1,5,3,700767,5,2667,0,2,36,"male",2,"right-handed",NA,NA,NA,NA,NA,NA,NA,"Chrome",51,1600,900,"MacOS","en-US",0.7,NA,"zbtJuze8JsGvS07g"
"test","possible","scenario5",101,"How irrational would it be for Mary to. . . explain what happened to her teacher?","Totally rational","Somewhat rational","In between","Somewhat irrational","Totally irrational","Not applicable","na",600,"na","na","na","survey","na","na","na","na","na","na",1,5,3,704135,1,3367,0,2,36,"male",2,"right-handed",NA,NA,NA,NA,NA,NA,NA,"Chrome",51,1600,900,"MacOS","en-US",0.7,NA,"zbtJuze8JsGvS07g"
"test","immoral","scenario5",109,"How irrational would it be for Mary to. . . quickly copy someone's homework?","Totally rational","Somewhat rational","In between","Somewhat irrational","Totally irrational","Not applicable","na",600,"na","na","na","survey","na","na","na","na","na","na",1,5,3,706503,5,2367,0,2,36,"male",2,"right-handed",NA,NA,NA,NA,NA,NA,NA,"Chrome",51,1600,900,"MacOS","en-US",0.7,NA,"zbtJuze8JsGvS07g"
"test","possible","scenario5",99,"How irrational would it be for Mary to. . . ask for an extra-credit assignment?","Totally rational","Somewhat rational","In between","Somewhat irrational","Totally irrational","Not applicable","na",600,"na","na","na","survey","na","na","na","na","na","na",1,5,3,709083,2,2579,0,2,36,"male",2,"right-handed",NA,NA,NA,NA,NA,NA,NA,"Chrome",51,1600,900,"MacOS","en-US",0.7,NA,"zbtJuze8JsGvS07g"
"test","irrational","scenario5",118,"How irrational would it be for Mary to. . . look under the lunchroom tables?","Totally rational","Somewhat rational","In between","Somewhat irrational","Totally irrational","Not applicable","na",600,"na","na","na","survey","na","na","na","na","na","na",1,5,3,711623,5,2539,0,2,36,"male",2,"right-handed",NA,NA,NA,NA,NA,NA,NA,"Chrome",51,1600,900,"MacOS","en-US",0.7,NA,"zbtJuze8JsGvS07g"
"test","improbable","scenario5",114,"How irrational would it be for Mary to. . . learn school is canceled today?","Totally rational","Somewhat rational","In between","Somewhat irrational","Totally irrational","Not applicable","na",600,"na","na","na","survey","na","na","na","na","na","na",1,5,3,714735,3,3111,0,2,36,"male",2,"right-handed",NA,NA,NA,NA,NA,NA,NA,"Chrome",51,1600,900,"MacOS","en-US",0.7,NA,"zbtJuze8JsGvS07g"
"test","immoral","scenario5",111,"How irrational would it be for Mary to. . . forge an excuse note?","Totally rational","Somewhat rational","In between","Somewhat irrational","Totally irrational","Not applicable","na",600,"na","na","na","survey","na","na","na","na","na","na",1,5,3,718851,3,4115,0,2,36,"male",2,"right-handed",NA,NA,NA,NA,NA,NA,NA,"Chrome",51,1600,900,"MacOS","en-US",0.7,NA,"zbtJuze8JsGvS07g"
